LabVIEW Measurement	
Writer_Version	2
Reader_Version	2
Separator	Tab
Decimal_Separator	.
Multi_Headings	Yes
X_Columns	One
Time_Pref	Relative
Operator	e014
Description	Hysteresis Loop Data
Date	2015/08/26
Time	17:21:31.4622063636779785156
***End_of_Header***	
	
Channels	2		
Samples	200	200	
Date	2015/08/26	2015/08/26	
Time	17:21:31.4622063636779785156	17:21:31.4622063636779785156	
Y_Unit_Label	V	V	
X_Dimension	Time	Time	
X0	0.0000000000000000E+0	0.0000000000000000E+0	
Delta_X	5.000000E-5	5.000000E-5	
***End_of_Header***			
X_Value	Applied Voltage	Sense Voltage	Comment
0.000000	-14.671385	-4.041770
5.000000E-5	-14.101562	-3.899403
0.000100	-13.591273	-3.745527
0.000150	-13.282973	-3.569952
0.000200	-12.900256	-3.537072
0.000250	-12.098677	-3.522934
0.000300	-11.681940	-3.270750
0.000350	-11.220554	-3.298040
0.000400	-10.603955	-3.057692
0.000450	-10.089413	-3.094845
0.000500	-9.770483	-2.884746
0.000550	-8.943389	-2.704239
0.000600	-8.439479	-2.674318
0.000650	-8.065267	-2.595737
0.000700	-7.616638	-2.444492
0.000750	-7.099970	-2.300151
0.000800	-6.528022	-2.173895
0.000850	-5.945442	-1.988126
0.000900	-5.343727	-1.774410
0.000950	-4.865331	-1.631385
0.001000	-4.410324	-1.525842
0.001050	-3.804356	-1.299961
0.001100	-3.345096	-1.149702
0.001150	-2.781653	-0.949796
0.001200	-2.281995	-0.780138
0.001250	-1.741940	-0.582204
0.001300	-1.235904	-0.394463
0.001350	-0.706480	-0.195543
0.001400	-0.191939	-0.025227
0.001450	0.294961	0.171720
0.001500	0.820133	0.356503
0.001550	1.332548	0.538983
0.001600	1.864098	0.720149
0.001650	2.374386	0.900328
0.001700	2.908062	1.089056
0.001750	3.405593	1.258385
0.001800	3.954153	1.436921
0.001850	4.470820	1.604277
0.001900	4.983234	1.764729
0.001950	5.521163	1.932414
0.002000	6.035703	2.080043
0.002050	6.550243	2.224055
0.002100	7.075415	2.368067
0.002150	7.617596	2.516025
0.002200	8.161903	2.656749
0.002250	8.676443	2.786952
0.002300	9.178226	2.911894
0.002350	9.697019	3.039137
0.002400	10.243452	3.163751
0.002450	10.828157	3.271267
0.002500	11.264027	3.306777
0.002550	11.685015	3.501752
0.002600	12.405796	3.518192
0.002650	12.767250	3.726648
0.002700	13.224383	3.735197
0.002750	13.968552	3.737498
0.002800	14.614916	3.894005
0.002850	15.069923	4.020262
0.002900	15.567453	4.110681
0.002950	16.133022	4.153753
0.003000	16.713474	4.192222
0.003050	17.049413	4.310918
0.003100	17.323693	4.502605
0.003150	18.038095	4.512140
0.003200	18.718478	4.539431
0.003250	18.833293	4.717967
0.003300	19.809218	4.667661
0.003350	19.955926	4.798193
0.003400	20.578901	4.910970
0.003450	21.437885	4.856061
0.003500	21.654757	4.911299
0.003550	21.939668	5.064517
0.003600	22.492479	5.170718
0.003650	23.070805	5.233847
0.003700	23.600228	5.283496
0.003750	24.065865	5.328212
0.003800	24.580405	5.329856
0.003850	25.177866	5.292044
0.003900	26.068742	5.354187
0.003950	25.679648	5.355502
0.004000	25.016275	5.342679
0.004050	24.416687	5.296976
0.004100	23.902148	5.243382
0.004150	23.459899	5.159211
0.004200	23.053795	5.045118
0.004250	22.458460	4.898147
0.004300	21.586719	4.956344
0.004350	21.123208	4.957330
0.004400	20.967996	4.774519
0.004450	19.981440	4.821866
0.004500	19.873004	4.649577
0.004550	18.962991	4.698239
0.004600	18.833293	4.481891
0.004650	18.099755	4.472027
0.004700	17.436381	4.467095
0.004750	16.985627	4.393445
0.004800	16.590154	4.293820
0.004850	16.105381	4.206689
0.004900	15.544065	4.142903
0.004950	14.916837	4.075500
0.005000	14.312996	3.959435
0.005050	13.949416	3.786818
0.005100	13.585836	3.751965
0.005150	12.780007	3.676671
0.005200	12.501475	3.505369
0.005250	11.723286	3.477421
0.005300	11.502162	3.349520
0.005350	10.732478	3.195315
0.005400	10.220064	3.155202
0.005450	9.873493	3.069058
0.005500	9.375963	2.924388
0.005550	8.825277	2.785965
0.005600	8.300106	2.677134
0.005650	7.766430	2.550877
0.005700	7.143453	2.368725
0.005750	6.624660	2.224055
0.005800	6.139887	2.097140
0.005850	5.591327	1.945237
0.005900	5.074661	1.782484
0.005950	4.560120	1.625977
0.006000	4.024318	1.461909
0.006050	3.505525	1.295210
0.006100	2.982479	1.115031
0.006150	2.461560	0.936167
0.006200	1.934262	0.756316
0.006250	1.413343	0.575808
0.006300	0.900929	0.392341
0.006350	0.382136	0.209860
0.006400	-0.145162	0.063876
0.006450	-0.644820	-0.132085
0.006500	-1.148730	-0.317196
0.006550	-1.659018	-0.501650
0.006600	-2.190568	-0.685117
0.006650	-2.715740	-0.872529
0.006700	-3.234534	-1.061257
0.006750	-3.761832	-1.246697
0.006800	-4.291256	-1.421286
0.006850	-4.807924	-1.588642
0.006900	-5.328843	-1.758957
0.006950	-5.847637	-1.920066
0.007000	-6.377061	-2.072297
0.007050	-6.914991	-2.223871
0.007100	-7.423153	-2.363609
0.007150	-7.941947	-2.507949
0.007200	-8.467119	-2.641439
0.007250	-8.990166	-2.764737
0.007300	-9.511086	-2.890007
0.007350	-10.040510	-3.015935
0.007400	-10.565683	-3.135287
0.007450	-11.088729	-3.241816
0.007500	-11.605397	-3.349989
0.007550	-12.122065	-3.457833
0.007600	-12.649364	-3.562061
0.007650	-13.168158	-3.651821
0.007700	-13.693331	-3.746843
0.007750	-14.207872	-3.842193
0.007800	-14.728793	-3.935899
0.007850	-15.260344	-4.017768
0.007900	-15.777013	-4.097336
0.007950	-16.291555	-4.181836
0.008000	-16.818854	-4.269624
0.008050	-17.350406	-4.339657
0.008100	-17.864948	-4.412320
0.008150	-18.394373	-4.486299
0.008200	-18.904663	-4.564880
0.008250	-19.431963	-4.626365
0.008300	-19.963515	-4.693439
0.008350	-20.480183	-4.760184
0.008400	-20.998978	-4.828901
0.008450	-21.524151	-4.888742
0.008500	-22.053577	-4.945623
0.008550	-22.563868	-5.008751
0.008600	-23.084789	-5.072866
0.008650	-23.614215	-5.130734
0.008700	-24.135136	-5.177751
0.008750	-24.653931	-5.232988
0.008800	-25.166348	-5.294801
0.008850	-25.680891	-5.350039
0.008900	-26.246463	-5.359574
0.008950	-25.685143	-5.332613
0.009000	-25.040902	-5.285266
0.009050	-24.549747	-5.166243
0.009100	-24.207427	-5.091936
0.009150	-23.799195	-5.034068
0.009200	-23.293157	-4.977516
0.009250	-22.691440	-4.917018
0.009300	-22.004675	-4.898934
0.009350	-21.328540	-4.915703
0.009400	-21.018114	-4.878220
0.009450	-20.756590	-4.667793
0.009500	-19.912486	-4.686534
0.009550	-19.493623	-4.643133
0.009600	-19.062002	-4.502410
0.009650	-18.441150	-4.484326
0.009700	-17.843686	-4.430404
0.009750	-17.611929	-4.249568
0.009800	-16.818854	-4.257459
0.009850	-16.138468	-4.267651
0.009900	-15.755751	-4.139093
0.009950	-15.316689	-4.038647

