LabVIEW Measurement	
Writer_Version	2
Reader_Version	2
Separator	Tab
Decimal_Separator	.
Multi_Headings	Yes
X_Columns	One
Time_Pref	Relative
Operator	e014
Description	Hysteresis Loop Data
Date	2015/09/01
Time	16:12:41.0865879058837890625
***End_of_Header***	
	
Channels	2		
Samples	200	200	
Date	2015/09/01	2015/09/01	
Time	16:12:41.0865879058837890625	16:12:41.0865879058837890625	
Y_Unit_Label	V	C	
X_Dimension	Time	Time	
X0	0.0000000000000000E+0	0.0000000000000000E+0	
Delta_X	5.000000E-5	5.000000E-5	
***End_of_Header***			
X_Value	Applied Voltage	Charge	Comment
0.000000	-3.336591	8.979477E-12	Source: DAQ NI USB-6211 | Sample Length: 1.00E+3 ms | Sample Rate: 20.0 kHz | Sense Capacitance: 100 nF
5.000000E-5	-3.842628	-2.389993E-11
0.000100	-4.357169	-1.882969E-10
0.000150	-4.897224	-2.211763E-10
0.000200	-5.435153	-4.513322E-10
0.000250	-5.932685	-4.842116E-10
0.000300	-6.442974	-5.170910E-10
0.000350	-6.989408	-7.472468E-10
0.000400	-7.537968	-8.130056E-10
0.000450	-8.033374	-9.116438E-10
0.000500	-8.550041	-9.774026E-10
0.000550	-9.070961	-1.076041E-9
0.000600	-9.632279	-1.207558E-9
0.000650	-10.136190	-1.306197E-9
0.000700	-10.644353	-1.404835E-9
0.000750	-11.161020	-1.536352E-9
0.000800	-11.720212	-1.602111E-9
0.000850	-12.221997	-1.766508E-9
0.000900	-12.725907	-1.832267E-9
0.000950	-13.244701	-1.963785E-9
0.001000	-13.803893	-1.996664E-9
0.001050	-14.320561	-2.161061E-9
0.001100	-14.820220	-2.226820E-9
0.001150	-15.334762	-2.391217E-9
0.001200	-15.889702	-2.456976E-9
0.001250	-16.412748	-2.621373E-9
0.001300	-16.916659	-2.687132E-9
0.001350	-17.431201	-2.785770E-9
0.001400	-17.969132	-2.851529E-9
0.001450	-18.507062	-3.015926E-9
0.001500	-19.002469	-3.147443E-9
0.001550	-19.519137	-3.213202E-9
0.001600	-20.059194	-3.278961E-9
0.001650	-20.603503	-3.443358E-9
0.001700	-21.094657	-3.574875E-9
0.001750	-21.611326	-3.640634E-9
0.001800	-22.132247	-3.706393E-9
0.001850	-22.691440	-3.870790E-9
0.001900	-23.203857	-3.969428E-9
0.001950	-23.709894	-4.068066E-9
0.002000	-24.224437	-4.199584E-9
0.002050	-24.785757	-4.265343E-9
0.002100	-25.293921	-4.363981E-9
0.002150	-25.793580	-4.429740E-9
0.002200	-26.252842	-4.495499E-9
0.002250	-25.729794	-4.429740E-9
0.002300	-25.174853	-4.298222E-9
0.002350	-24.679446	-4.232463E-9
0.002400	-24.169156	-4.133825E-9
0.002450	-23.650360	-4.035187E-9
0.002500	-23.086915	-3.870790E-9
0.002550	-22.580877	-3.805031E-9
0.002600	-22.070587	-3.706393E-9
0.002650	-21.551792	-3.673514E-9
0.002700	-20.990473	-3.541996E-9
0.002750	-20.484436	-3.476237E-9
0.002800	-19.984777	-3.344720E-9
0.002850	-19.457477	-3.278961E-9
0.002900	-18.900411	-3.147443E-9
0.002950	-18.385868	-3.048805E-9
0.003000	-17.886210	-2.950167E-9
0.003050	-17.373794	-2.884408E-9
0.003100	-16.823106	-2.818649E-9
0.003150	-16.287302	-2.687132E-9
0.003200	-15.796148	-2.588493E-9
0.003250	-15.277354	-2.522735E-9
0.003300	-14.737298	-2.391217E-9
0.003350	-14.197241	-2.292579E-9
0.003400	-13.703962	-2.226820E-9
0.003450	-13.187294	-2.128182E-9
0.003500	-12.662121	-2.062423E-9
0.003550	-12.107181	-1.930905E-9
0.003600	-11.609650	-1.832267E-9
0.003650	-11.097234	-1.733629E-9
0.003700	-10.580566	-1.634991E-9
0.003750	-10.012870	-1.536352E-9
0.003800	-9.506833	-1.503473E-9
0.003850	-9.002923	-1.371955E-9
0.003900	-8.486255	-1.306197E-9
0.003950	-7.927064	-1.207558E-9
0.004000	-7.421027	-1.076041E-9
0.004050	-6.919243	-1.010282E-9
0.004100	-6.389819	-9.445232E-10
0.004150	-5.830627	-8.130056E-10
0.004200	-5.316086	-6.814880E-10
0.004250	-4.812176	-5.828498E-10
0.004300	-4.299761	-5.170910E-10
0.004350	-3.749075	-4.184528E-10
0.004400	-3.213272	-2.869352E-10
0.004450	-2.719993	-2.211763E-10
0.004500	-2.207578	-1.225381E-10
0.004550	-1.665397	-2.389993E-11
0.004600	-1.125341	7.473828E-11
0.004650	-0.629936	1.733765E-10
0.004700	-0.170677	2.391353E-10
0.004750	0.397019	3.706529E-10
0.004800	0.913686	4.692911E-10
0.004850	1.413343	5.350499E-10
0.004900	1.932136	6.665675E-10
0.004950	2.480696	7.652058E-10
0.005000	3.010120	8.638440E-10
0.005050	3.505525	9.296028E-10
0.005100	4.022191	1.028241E-9
0.005150	4.564373	1.094000E-9
0.005200	5.104427	1.225517E-9
0.005250	5.595580	1.291276E-9
0.005300	6.107994	1.422794E-9
0.005350	6.643796	1.488553E-9
0.005400	7.198734	1.652950E-9
0.005450	7.694139	1.718708E-9
0.005500	8.208679	1.817347E-9
0.005550	8.725346	1.883105E-9
0.005600	9.286662	1.981744E-9
0.005650	9.790571	2.146141E-9
0.005700	10.300859	2.179020E-9
0.005750	10.815399	2.277658E-9
0.005800	11.380968	2.376297E-9
0.005850	11.884877	2.474935E-9
0.005900	12.384534	2.639332E-9
0.005950	12.903327	2.672211E-9
0.006000	13.458264	2.803729E-9
0.006050	13.974931	2.902367E-9
0.006100	14.476713	3.001005E-9
0.006150	14.991253	3.132523E-9
0.006200	15.541939	3.165402E-9
0.006250	16.071362	3.264040E-9
0.006300	16.560388	3.362679E-9
0.006350	17.072801	3.428437E-9
0.006400	17.610729	3.527076E-9
0.006450	18.157162	3.625714E-9
0.006500	18.650440	3.757232E-9
0.006550	19.164980	3.822990E-9
0.006600	19.681646	3.921629E-9
0.006650	20.240836	4.053146E-9
0.006700	20.734114	4.053146E-9
0.006750	21.248654	4.217543E-9
0.006800	21.767446	4.250423E-9
0.006850	22.328762	4.447699E-9
0.006900	22.828418	4.480578E-9
0.006950	23.334453	4.644975E-9
0.007000	23.851119	4.710734E-9
0.007050	24.414561	4.809372E-9
0.007100	24.920596	4.908011E-9
0.007150	25.426631	5.006649E-9
0.007200	25.898647	5.006649E-9
0.007250	25.362845	4.973769E-9
0.007300	24.807908	4.743614E-9
0.007350	24.306125	4.743614E-9
0.007400	23.800090	4.710734E-9
0.007450	23.281298	4.513458E-9
0.007500	22.715730	4.447699E-9
0.007550	22.218200	4.316181E-9
0.007600	21.714291	4.250423E-9
0.007650	21.199751	4.151784E-9
0.007700	20.640561	4.020267E-9
0.007750	20.128148	3.921629E-9
0.007800	19.626365	3.822990E-9
0.007850	19.118204	3.724352E-9
0.007900	18.559014	3.625714E-9
0.007950	18.040221	3.461317E-9
0.008000	17.542691	3.461317E-9
0.008050	17.026025	3.329799E-9
0.008100	16.473214	3.198282E-9
0.008150	15.952295	3.099643E-9
0.008200	15.454765	3.001005E-9
0.008250	14.942351	2.935246E-9
0.008300	14.406549	2.803729E-9
0.008350	13.855864	2.672211E-9
0.008400	13.364712	2.606452E-9
0.008450	12.854424	2.507814E-9
0.008500	12.327127	2.442055E-9
0.008550	11.774315	2.310538E-9
0.008600	11.276785	2.211900E-9
0.008650	10.766497	2.113261E-9
0.008700	10.245578	1.981744E-9
0.008750	9.686388	1.915985E-9
0.008800	9.178226	1.751588E-9
0.008850	8.672191	1.718708E-9
0.008900	8.155524	1.620070E-9
0.008950	7.596334	1.422794E-9
0.009000	7.088172	1.357035E-9
0.009050	6.582136	1.291276E-9
0.009100	6.056965	1.192638E-9
0.009150	5.506279	1.094000E-9
0.009200	4.989613	9.624822E-10
0.009250	4.487829	8.967234E-10
0.009300	3.966910	7.652058E-10
0.009350	3.422603	6.665675E-10
0.009400	2.886800	5.679293E-10
0.009450	2.391396	5.021705E-10
0.009500	1.876855	4.035323E-10
0.009550	1.341052	3.048941E-10
0.009600	0.796745	1.404971E-10
0.009650	0.301340	1.076177E-10
0.009700	-0.166424	8.979477E-12
0.009750	-0.725615	-1.225381E-10
0.009800	-1.242282	-2.211763E-10
0.009850	-1.744066	-3.526940E-10
0.009900	-2.260733	-4.513322E-10
0.009950	-2.749760	-2.211763E-10

