LabVIEW Measurement	
Writer_Version	2
Reader_Version	2
Separator	Tab
Decimal_Separator	.
Multi_Headings	Yes
X_Columns	One
Time_Pref	Relative
Operator	e014
Description	Hysteresis Loop Data
Date	2015/09/01
Time	16:15:45.3541274070739746094
***End_of_Header***	
	
Channels	2		
Samples	200	200	
Date	2015/09/01	2015/09/01	
Time	16:15:45.3541274070739746094	16:15:45.3541274070739746094	
Y_Unit_Label	V	C	
X_Dimension	Time	Time	
X0	0.0000000000000000E+0	0.0000000000000000E+0	
Delta_X	5.000000E-5	5.000000E-5	
***End_of_Header***			
X_Value	Applied Voltage	Charge	Comment
0.000000	-21.260502	-7.212841E-8	Source: DAQ NI USB-6211 | Sample Length: 1.00E+3 ms | Sample Rate: 20.0 kHz | Sense Capacitance: 100 nF
5.000000E-5	-20.726823	-7.008989E-8
0.000100	-20.171883	-6.834728E-8
0.000150	-19.665845	-6.647316E-8
0.000200	-19.161934	-6.522374E-8
0.000250	-18.628256	-6.318522E-8
0.000300	-18.075442	-6.154125E-8
0.000350	-17.575783	-5.970000E-8
0.000400	-17.086756	-5.835195E-8
0.000450	-16.561583	-5.628055E-8
0.000500	-15.985381	-5.470234E-8
0.000550	-15.472965	-5.286109E-8
0.000600	-14.992442	-5.141440E-8
0.000650	-14.467270	-4.950739E-8
0.000700	-13.922961	-4.792918E-8
0.000750	-13.385031	-4.589066E-8
0.000800	-12.898130	-4.444397E-8
0.000850	-12.381462	-4.273424E-8
0.000900	-11.837153	-4.089299E-8
0.000950	-11.286466	-3.898599E-8
0.001000	-10.803818	-3.730914E-8
0.001050	-10.293529	-3.599396E-8
0.001100	-9.751347	-3.398832E-8
0.001150	-9.196407	-3.204843E-8
0.001200	-8.711633	-3.020719E-8
0.001250	-8.194965	-2.885913E-8
0.001300	-7.667667	-2.691925E-8
0.001350	-7.110602	-2.507800E-8
0.001400	-6.602439	-2.317100E-8
0.001450	-6.102781	-2.188870E-8
0.001500	-5.569104	-1.978442E-8
0.001550	-5.018418	-1.810757E-8
0.001600	-4.510255	-1.616769E-8
0.001650	-4.023355	-1.481963E-8
0.001700	-3.489678	-1.274823E-8
0.001750	-2.930487	-1.120290E-8
0.001800	-2.413820	-9.197253E-9
0.001850	-1.929046	-7.750559E-9
0.001900	-1.397495	-5.777795E-9
0.001950	-0.855314	-4.265343E-9
0.002000	-0.321637	-2.259699E-9
0.002050	0.120613	-9.116438E-10
0.002100	0.664920	1.094000E-9
0.002150	1.217733	2.672211E-9
0.002200	1.723768	4.513458E-9
0.002250	2.208542	5.861513E-9
0.002300	2.737966	7.900037E-9
0.002350	3.292905	9.576886E-9
0.002400	3.811698	1.161541E-8
0.002450	4.307102	1.312786E-8
0.002500	4.834400	1.496911E-8
0.002550	5.376581	1.658020E-8
0.002600	5.912383	1.861872E-8
0.002650	6.395031	2.016406E-8
0.002700	6.920202	2.190666E-8
0.002750	7.464509	2.361639E-8
0.002800	8.008816	2.575355E-8
0.002850	8.491464	2.743040E-8
0.002900	9.008130	2.890998E-8
0.002950	9.548185	3.088274E-8
0.003000	10.100997	3.278975E-8
0.003050	10.590022	3.449948E-8
0.003100	11.093931	3.581465E-8
0.003150	11.625481	3.805046E-8
0.003200	12.182545	3.989170E-8
0.003250	12.682202	4.183159E-8
0.003300	13.175480	4.331116E-8
0.003350	13.719787	4.528393E-8
0.003400	14.270472	4.712517E-8
0.003450	14.780760	4.906506E-8
0.003500	15.267659	5.031448E-8
0.003550	15.794956	5.248452E-8
0.003600	16.337137	5.429289E-8
0.003650	16.862308	5.652869E-8
0.003700	17.357712	5.800826E-8
0.003750	17.891388	5.998103E-8
0.003800	18.425063	6.159212E-8
0.003850	18.956613	6.376216E-8
0.003900	19.439260	6.553765E-8
0.003950	19.958052	6.718162E-8
0.004000	20.500232	6.895711E-8
0.004050	21.040286	7.129155E-8
0.004100	21.531438	7.316567E-8
0.004150	22.048104	7.484252E-8
0.004200	22.586032	7.661801E-8
0.004250	23.130338	7.872230E-8
0.004300	23.621490	8.072794E-8
0.004350	24.127525	8.201024E-8
0.004400	24.659074	8.434468E-8
0.004450	25.209759	8.638320E-8
0.004500	25.717920	8.838885E-8
0.004550	25.669017	8.750110E-8
0.004600	25.158730	8.608729E-8
0.004650	24.616550	8.434468E-8
0.004700	24.063739	8.256919E-8
0.004750	23.585344	8.102386E-8
0.004800	23.064426	7.964292E-8
0.004850	22.539255	7.790031E-8
0.004900	21.990696	7.599330E-8
0.004950	21.497419	7.405342E-8
0.005000	20.993510	7.290264E-8
0.005050	20.453456	7.096275E-8
0.005100	19.896392	6.922014E-8
0.005150	19.396736	6.728026E-8
0.005200	18.909836	6.609660E-8
0.005250	18.376161	6.418959E-8
0.005300	17.823349	6.264426E-8
0.005350	17.308809	6.024406E-8
0.005400	16.821910	5.915904E-8
0.005450	16.296739	5.731779E-8
0.005500	15.739675	5.573958E-8
0.005550	15.223009	5.340514E-8
0.005600	14.740362	5.232012E-8
0.005650	14.210939	5.047887E-8
0.005700	13.668758	4.880202E-8
0.005750	13.128704	4.643471E-8
0.005800	12.648183	4.531681E-8
0.005850	12.127264	4.354132E-8
0.005900	11.589336	4.156855E-8
0.005950	11.034398	3.972731E-8
0.006000	10.551751	3.818197E-8
0.006050	10.037211	3.660376E-8
0.006100	9.495030	3.469675E-8
0.006150	8.948597	3.292127E-8
0.006200	8.459571	3.075123E-8
0.006250	7.951409	2.960045E-8
0.006300	7.404976	2.762768E-8
0.006350	6.856416	2.598371E-8
0.006400	6.346128	2.381367E-8
0.006450	5.859228	2.259713E-8
0.006500	5.325552	2.059149E-8
0.006550	4.770614	1.907903E-8
0.006600	4.258200	1.658020E-8
0.006650	3.773426	1.559382E-8
0.006700	3.237623	1.371969E-8
0.006750	2.686937	1.197708E-8
0.006800	2.159640	9.642645E-9
0.006850	1.668487	8.557625E-9
0.006900	1.147568	6.782137E-9
0.006950	0.605387	4.940890E-9
0.007000	0.069584	2.672211E-9
0.007050	-0.379045	1.455673E-9
0.007100	-0.908469	-3.198146E-10
0.007150	-1.459155	-1.996664E-9
0.007200	-1.986453	-4.265343E-9
0.007250	-2.460596	-5.350363E-9
0.007300	-2.985768	-7.388886E-9
0.007350	-3.547085	-9.032856E-9
0.007400	-4.072257	-1.176185E-8
0.007450	-4.567663	-1.235368E-8
0.007500	-5.109844	-1.409628E-8
0.007550	-5.630764	-1.564162E-8
0.007600	-6.185703	-1.800893E-8
0.007650	-6.655594	-1.935699E-8
0.007700	-7.170135	-2.132975E-8
0.007750	-7.720822	-2.326964E-8
0.007800	-8.269382	-2.520952E-8
0.007850	-8.747778	-2.675485E-8
0.007900	-9.268698	-2.849746E-8
0.007950	-9.804502	-3.043734E-8
0.008000	-10.365820	-3.221283E-8
0.008050	-10.854847	-3.434999E-8
0.008100	-11.350253	-3.559941E-8
0.008150	-11.894561	-3.750641E-8
0.008200	-12.443122	-3.934766E-8
0.008250	-12.949159	-4.194513E-8
0.008300	-13.448817	-4.280000E-8
0.008350	-13.984621	-4.480564E-8
0.008400	-14.531056	-4.644961E-8
0.008450	-15.043471	-4.907996E-8
0.008500	-15.538877	-5.006634E-8
0.008550	-16.064050	-5.210486E-8
0.008600	-16.612612	-5.391323E-8
0.008650	-17.144163	-5.624767E-8
0.008700	-17.626812	-5.749708E-8
0.008750	-18.154112	-5.943697E-8
0.008800	-18.702673	-6.127821E-8
0.008850	-19.229973	-6.361265E-8
0.008900	-19.721127	-6.489495E-8
0.008950	-20.244174	-6.693347E-8
0.009000	-20.777852	-6.913639E-8
0.009050	-21.328540	-7.104339E-8
0.009100	-21.813316	-7.298328E-8
0.009150	-22.329985	-7.442997E-8
0.009200	-22.861537	-7.673153E-8
0.009250	-23.435613	-7.840837E-8
0.009300	-23.916137	-8.100585E-8
0.009350	-24.417922	-8.209086E-8
0.009400	-24.960106	-8.429378E-8
0.009450	-25.510794	-8.616791E-8
0.009500	-26.018958	-8.860098E-8
0.009550	-25.957298	-8.735157E-8
0.009600	-25.449134	-8.606927E-8
0.009650	-24.906950	-8.432666E-8
0.009700	-24.358388	-8.241966E-8
0.009750	-23.871486	-8.094009E-8
0.009800	-23.367575	-7.952627E-8
0.009850	-22.814760	-7.765215E-8
0.009900	-22.259820	-7.584378E-8
0.009950	-21.811190	-7.396966E-8

