LabVIEW Measurement	
Writer_Version	2
Reader_Version	2
Separator	Tab
Decimal_Separator	.
Multi_Headings	Yes
X_Columns	One
Time_Pref	Relative
Operator	e014
Description	Hysteresis Loop Data
Date	2015/09/01
Time	16:23:44.4735317230224609375
***End_of_Header***	
	
Channels	2		
Samples	200	200	
Date	2015/09/01	2015/09/01	
Time	16:23:44.4735317230224609375	16:23:44.4735317230224609375	
Y_Unit_Label	V	C	
X_Dimension	Time	Time	
X0	0.0000000000000000E+0	0.0000000000000000E+0	
Delta_X	5.000000E-5	5.000000E-5	
***End_of_Header***			
X_Value	Applied Voltage	Charge	Comment
0.000000	12.665192	7.822911E-8	Source: DAQ NI USB-6211 | Sample Length: 1.00E+3 ms | Sample Rate: 20.0 kHz | Sense Capacitance: 100 nF
5.000000E-5	15.299552	8.598865E-8
0.000100	16.492349	5.156389E-8
0.000150	14.204560	9.483322E-8
0.000200	17.612856	8.697503E-8
0.000250	17.245023	5.899464E-8
0.000300	15.962926	1.090700E-7
0.000350	19.696529	8.464059E-8
0.000400	17.867999	8.286510E-8
0.000450	18.189055	1.172570E-7
0.000500	21.350711	8.480499E-8
0.000550	18.546256	1.033819E-7
0.000600	20.742619	1.193942E-7
0.000650	22.460586	8.516666E-8
0.000700	19.892140	1.244905E-7
0.000750	23.298308	1.177173E-7
0.000800	22.932602	9.147951E-8
0.000850	21.833358	1.412919E-7
0.000900	25.515931	1.123908E-7
0.000950	23.128212	1.195257E-7
0.001000	24.567647	1.443168E-7
0.001050	26.528001	1.047628E-7
0.001100	24.514492	1.543450E-7
0.001150	26.925600	1.075576E-7
0.001200	23.368472	1.481965E-7
0.001250	26.094257	1.219587E-7
0.001300	23.347210	1.125224E-7
0.001350	22.643439	1.425413E-7
0.001400	24.763258	1.044669E-7
0.001450	20.827666	1.188681E-7
0.001500	22.058735	1.278770E-7
0.001550	22.692342	8.888204E-8
0.001600	19.135213	1.226492E-7
0.001650	21.367721	1.119634E-7
0.001700	20.198312	7.569739E-8
0.001750	17.772320	1.219587E-7
0.001800	20.427941	9.427427E-8
0.001850	17.704282	8.362133E-8
0.001900	16.694338	1.145938E-7
0.001950	19.041661	7.855790E-8
0.002000	15.410115	8.542970E-8
0.002050	15.854490	1.032832E-7
0.002100	17.264159	6.589932E-8
0.002150	13.445507	8.658048E-8
0.002200	15.012515	9.023010E-8
0.002250	15.259154	5.123510E-8
0.002300	11.810460	8.631744E-8
0.002350	14.051474	7.625634E-8
0.002400	13.109568	3.854365E-8
0.002450	10.383781	8.398300E-8
0.002500	12.890569	6.169076E-8
0.002550	10.889816	3.959579E-8
0.002600	9.078295	7.842638E-8
0.002650	11.629734	4.784852E-8
0.002700	8.727472	4.025338E-8
0.002750	7.825963	6.987773E-8
0.002800	10.169035	3.545298E-8
0.002850	6.756485	3.775454E-8
0.002900	6.622534	6.057286E-8
0.002950	8.538240	2.456990E-8
0.003000	4.876924	3.453236E-8
0.003050	5.431862	5.051175E-8
0.003100	6.867047	1.500199E-8
0.003150	3.086663	3.029091E-8
0.003200	4.149763	4.048353E-8
0.003250	5.219242	5.368322E-9
0.003300	1.426100	2.555628E-8
0.003350	2.748597	3.091562E-8
0.003400	3.516156	-4.100946E-9
0.003450	-0.151541	1.983526E-8
0.003500	1.360188	2.226834E-8
0.003550	1.808817	-1.366885E-8
0.003600	-1.748318	1.352241E-8
0.003650	-0.043105	1.378545E-8
0.003700	0.218418	-2.228325E-8
0.003750	-3.298320	6.716378E-9
0.003800	-1.495300	4.743614E-9
0.003850	-1.416631	-3.162100E-8
0.003900	-4.850448	7.980852E-10
0.003950	-2.958127	-4.627016E-9
0.004000	-3.155864	-4.181361E-8
0.004050	-6.370683	-4.791413E-9
0.004100	-4.293383	-1.429356E-8
0.004150	-5.009913	-5.276245E-8
0.004200	-7.914306	-1.021651E-8
0.004250	-5.613754	-2.537392E-8
0.004300	-6.889476	-5.960137E-8
0.004350	-9.428164	-1.560874E-8
0.004400	-6.923496	-3.813112E-8
0.004450	-8.873224	-5.956849E-8
0.004500	-10.761294	-2.188870E-8
0.004550	-8.305528	-5.164455E-8
0.004600	-11.016438	-5.953561E-8
0.004650	-11.954095	-3.040446E-8
0.004700	-9.710949	-6.466479E-8
0.004750	-13.140517	-6.062063E-8
0.004800	-13.061848	-4.138618E-8
0.004850	-11.354505	-7.646849E-8
0.004900	-15.085996	-6.124533E-8
0.004950	-14.050533	-5.302549E-8
0.005000	-13.263837	-9.008055E-8
0.005050	-16.823106	-6.134397E-8
0.005100	-14.898889	-6.719650E-8
0.005150	-15.413431	-1.062572E-7
0.005200	-18.339092	-6.351401E-8
0.005250	-15.915216	-8.320876E-8
0.005300	-17.737375	-1.051064E-7
0.005350	-19.585050	-6.847880E-8
0.005400	-17.144163	-1.007992E-7
0.005450	-20.171883	-1.022788E-7
0.005500	-20.480183	-7.946051E-8
0.005550	-18.692042	-1.152662E-7
0.005600	-22.449052	-9.951694E-8
0.005650	-21.188210	-9.445351E-8
0.005700	-20.739581	-1.325278E-7
0.005750	-24.086233	-9.734690E-8
0.005800	-21.915374	-1.117481E-7
0.005850	-23.308041	-1.405833E-7
0.005900	-25.357707	-1.004704E-7
0.005950	-22.870042	-1.322648E-7
0.006000	-26.042347	-1.323963E-7
0.006050	-26.021085	-1.131948E-7
0.006100	-24.579514	-1.488360E-7
0.006150	-27.394617	-1.219078E-7
0.006200	-24.696456	-1.194090E-7
0.006250	-23.977797	-1.532418E-7
0.006300	-25.850988	-1.048763E-7
0.006350	-22.381014	-1.221051E-7
0.006400	-23.412225	-1.338430E-7
0.006450	-23.852350	-9.514398E-8
0.006500	-20.441911	-1.231901E-7
0.006550	-22.691440	-1.157593E-7
0.006600	-21.664481	-9.070526E-8
0.006650	-18.932304	-1.207899E-7
0.006700	-21.632588	-9.843192E-8
0.006750	-19.391565	-8.781188E-8
0.006800	-17.782026	-1.192774E-7
0.006850	-20.197397	-8.301149E-8
0.006900	-17.148416	-8.508289E-8
0.006950	-16.782708	-1.184883E-7
0.007000	-18.587858	-6.962958E-8
0.007050	-15.113636	-8.389923E-8
0.007100	-15.781265	-1.036597E-7
0.007150	-16.797592	-5.887802E-8
0.007200	-13.261711	-8.261694E-8
0.007250	-14.830851	-8.656246E-8
0.007300	-14.871249	-5.101984E-8
0.007350	-11.545863	-7.939476E-8
0.007400	-13.778379	-7.295040E-8
0.007450	-12.936402	-4.523307E-8
0.007500	-9.955462	-7.485740E-8
0.007550	-12.566442	-5.920681E-8
0.007600	-10.980293	-3.987373E-8
0.007650	-8.562799	-6.959670E-8
0.007700	-11.220554	-4.638385E-8
0.007750	-8.971030	-3.441575E-8
0.007800	-7.208407	-6.499358E-8
0.007850	-9.802376	-3.411984E-8
0.007900	-7.048942	-2.925369E-8
0.007950	-5.841258	-6.048911E-8
0.008000	-8.231111	-2.290796E-8
0.008050	-5.241669	-2.356555E-8
0.008100	-4.480488	-5.588599E-8
0.008150	-6.615196	-1.245231E-8
0.008200	-3.493930	-1.728559E-8
0.008250	-3.126097	-4.996770E-8
0.008300	-5.041806	-3.344720E-9
0.008350	-1.758949	-1.047955E-8
0.008400	-1.665397	-4.263560E-8
0.008450	-3.489678	5.302564E-9
0.008500	-0.145162	-3.805031E-9
0.008550	-0.138784	-3.474455E-8
0.008600	-1.899279	1.368681E-8
0.008650	1.445236	2.737970E-9
0.008700	1.256004	-2.708365E-8
0.008750	-0.325889	2.279441E-8
0.008800	3.110051	9.379610E-9
0.008850	2.644413	-1.797605E-8
0.008900	1.266635	3.134305E-8
0.008950	4.825895	1.556094E-8
0.009000	4.030696	-6.468263E-9
0.009050	2.886800	4.035201E-8
0.009100	6.499215	2.049285E-8
0.009150	5.376581	6.354704E-9
0.009200	4.611149	4.936097E-8
0.009250	8.187417	2.496445E-8
0.009300	6.563001	1.970374E-8
0.009350	6.426924	5.731779E-8
0.009400	9.886250	2.923877E-8
0.009450	7.689886	3.262535E-8
0.009500	8.308611	6.405807E-8
0.009550	11.502162	3.341446E-8
0.009600	8.861422	4.689502E-8
0.009650	10.337005	6.938454E-8
0.009700	12.888443	3.821485E-8
0.009750	10.109501	6.195379E-8
0.009800	12.526989	7.362599E-8
0.009850	14.083367	4.058217E-8
0.009900	11.540433	7.767016E-8
0.009950	14.287482	7.903465E-8

