LabVIEW Measurement	
Writer_Version	2
Reader_Version	2
Separator	Tab
Decimal_Separator	.
Multi_Headings	Yes
X_Columns	No
Time_Pref	Relative
Operator	e014
Date	2015/07/21
Time	15:25:20.2652997970581054688
***End_of_Header***	
	
Channels	2		
Samples	2500	2500	
Date	2015/07/21	2015/07/21	
Time	15:25:20.2652997970581054688	15:25:20.2652997970581054688	
X_Dimension	Time	Time	
X0	-1.2500000000000000E-3	-1.2500000000000000E-3	
Delta_X	1.000000E-6	1.000000E-6	
***End_of_Header***			
X_Value	Untitled	Untitled 1	Comment
	-18.800000	-6.400000
	-18.800000	-6.320000
	-18.600000	-6.320000
	-18.600000	-6.240000
	-18.600000	-6.240000
	-18.400000	-6.160000
	-18.400000	-6.160000
	-18.200000	-6.080000
	-18.200000	-6.080000
	-18.000000	-6.000000
	-18.000000	-6.000000
	-18.000000	-5.920000
	-17.800000	-5.920000
	-17.800000	-5.840000
	-17.600000	-5.760000
	-17.600000	-5.760000
	-17.600000	-5.680000
	-17.400000	-5.680000
	-17.400000	-5.600000
	-17.200000	-5.600000
	-17.200000	-5.520000
	-17.000000	-5.520000
	-17.000000	-5.440000
	-17.000000	-5.440000
	-17.000000	-5.440000
	-16.800000	-5.360000
	-16.800000	-5.360000
	-16.800000	-5.280000
	-16.600000	-5.280000
	-16.600000	-5.200000
	-16.400000	-5.200000
	-16.400000	-5.120000
	-16.400000	-5.120000
	-16.200000	-5.040000
	-16.200000	-5.040000
	-16.000000	-4.960000
	-16.000000	-4.960000
	-16.000000	-4.880000
	-15.800000	-4.880000
	-15.800000	-4.800000
	-15.600000	-4.800000
	-15.600000	-4.720000
	-15.600000	-4.720000
	-15.400000	-4.640000
	-15.400000	-4.640000
	-15.200000	-4.560000
	-15.200000	-4.560000
	-15.000000	-4.560000
	-15.000000	-4.480000
	-15.000000	-4.480000
	-14.800000	-4.400000
	-14.800000	-4.320000
	-14.800000	-4.320000
	-14.600000	-4.240000
	-14.600000	-4.240000
	-14.400000	-4.240000
	-14.400000	-4.160000
	-14.400000	-4.160000
	-14.200000	-4.080000
	-14.200000	-4.080000
	-14.000000	-4.000000
	-14.000000	-4.000000
	-13.800000	-3.920000
	-13.800000	-3.920000
	-13.600000	-3.840000
	-13.600000	-3.840000
	-13.600000	-3.840000
	-13.400000	-3.760000
	-13.400000	-3.760000
	-13.200000	-3.680000
	-13.200000	-3.680000
	-13.200000	-3.600000
	-13.000000	-3.600000
	-13.000000	-3.520000
	-12.800000	-3.520000
	-12.800000	-3.440000
	-12.800000	-3.440000
	-12.600000	-3.360000
	-12.600000	-3.360000
	-12.400000	-3.360000
	-12.400000	-3.280000
	-12.400000	-3.280000
	-12.200000	-3.200000
	-12.200000	-3.200000
	-12.000000	-3.120000
	-12.000000	-3.120000
	-12.000000	-3.120000
	-11.800000	-3.040000
	-11.800000	-3.040000
	-11.600000	-2.960000
	-11.600000	-2.880000
	-11.400000	-2.880000
	-11.400000	-2.880000
	-11.400000	-2.800000
	-11.200000	-2.800000
	-11.200000	-2.720000
	-11.000000	-2.720000
	-11.000000	-2.720000
	-11.000000	-2.640000
	-10.800000	-2.640000
	-10.800000	-2.560000
	-10.800000	-2.560000
	-10.600000	-2.480000
	-10.600000	-2.480000
	-10.400000	-2.480000
	-10.400000	-2.400000
	-10.200000	-2.400000
	-10.200000	-2.320000
	-10.200000	-2.320000
	-10.000000	-2.240000
	-10.000000	-2.240000
	-9.800000	-2.160000
	-9.800000	-2.160000
	-9.800000	-2.080000
	-9.600000	-2.080000
	-9.600000	-2.080000
	-9.400000	-2.000000
	-9.400000	-2.000000
	-9.400000	-1.920000
	-9.200000	-1.920000
	-9.200000	-1.920000
	-9.000000	-1.840000
	-9.000000	-1.840000
	-9.000000	-1.760000
	-8.800000	-1.760000
	-8.800000	-1.760000
	-8.600000	-1.680000
	-8.600000	-1.680000
	-8.600000	-1.600000
	-8.400000	-1.600000
	-8.400000	-1.600000
	-8.200000	-1.520000
	-8.200000	-1.520000
	-8.200000	-1.440000
	-8.000000	-1.440000
	-8.000000	-1.360000
	-7.800000	-1.360000
	-7.800000	-1.280000
	-7.800000	-1.280000
	-7.600000	-1.280000
	-7.600000	-1.200000
	-7.400000	-1.200000
	-7.400000	-1.200000
	-7.200000	-1.120000
	-7.200000	-1.120000
	-7.200000	-1.040000
	-7.000000	-1.040000
	-7.000000	-1.040000
	-6.800000	-0.960000
	-6.800000	-0.960000
	-6.800000	-0.880000
	-6.600000	-0.880000
	-6.600000	-0.880000
	-6.400000	-0.800000
	-6.400000	-0.720000
	-6.200000	-0.720000
	-6.200000	-0.720000
	-6.200000	-0.640000
	-6.000000	-0.640000
	-6.000000	-0.640000
	-5.800000	-0.560000
	-5.800000	-0.560000
	-5.600000	-0.480000
	-5.600000	-0.480000
	-5.600000	-0.400000
	-5.400000	-0.400000
	-5.400000	-0.400000
	-5.200000	-0.320000
	-5.200000	-0.320000
	-5.200000	-0.320000
	-5.000000	-0.240000
	-5.000000	-0.240000
	-4.800000	-0.160000
	-4.800000	-0.160000
	-4.800000	-0.160000
	-4.600000	-0.080000
	-4.600000	0.000000
	-4.400000	0.000000
	-4.400000	0.000000
	-4.400000	0.080000
	-4.200000	0.080000
	-4.200000	0.080000
	-4.000000	0.160000
	-4.000000	0.160000
	-3.800000	0.240000
	-3.800000	0.240000
	-3.800000	0.240000
	-3.600000	0.320000
	-3.600000	0.320000
	-3.400000	0.320000
	-3.400000	0.320000
	-3.400000	0.400000
	-3.200000	0.400000
	-3.200000	0.480000
	-3.000000	0.480000
	-3.000000	0.480000
	-3.000000	0.560000
	-2.800000	0.560000
	-2.800000	0.560000
	-2.800000	0.640000
	-2.600000	0.720000
	-2.600000	0.720000
	-2.400000	0.720000
	-2.400000	0.800000
	-2.200000	0.800000
	-2.200000	0.800000
	-2.200000	0.880000
	-2.000000	0.880000
	-2.000000	0.880000
	-1.800000	0.960000
	-1.800000	0.960000
	-1.800000	0.960000
	-1.600000	1.040000
	-1.600000	1.040000
	-1.400000	1.040000
	-1.400000	1.120000
	-1.200000	1.120000
	-1.200000	1.120000
	-1.000000	1.200000
	-1.000000	1.200000
	-1.000000	1.200000
	-0.800000	1.280000
	-0.800000	1.280000
	-0.800000	1.280000
	-0.600000	1.360000
	-0.400000	1.440000
	-0.400000	1.440000
	-0.400000	1.440000
	-0.200000	1.520000
	-0.200000	1.520000
	-0.200000	1.520000
	0.000000	1.520000
	0.000000	1.600000
	0.200000	1.600000
	0.200000	1.600000
	0.200000	1.680000
	0.400000	1.680000
	0.400000	1.680000
	0.600000	1.760000
	0.600000	1.760000
	0.800000	1.760000
	0.800000	1.840000
	0.800000	1.840000
	1.000000	1.920000
	1.000000	1.920000
	1.200000	1.920000
	1.200000	1.920000
	1.400000	2.000000
	1.400000	2.000000
	1.400000	2.000000
	1.600000	2.080000
	1.600000	2.080000
	1.800000	2.160000
	1.800000	2.160000
	2.000000	2.160000
	2.000000	2.240000
	2.000000	2.240000
	2.200000	2.240000
	2.200000	2.320000
	2.400000	2.320000
	2.400000	2.320000
	2.400000	2.400000
	2.600000	2.400000
	2.600000	2.400000
	2.800000	2.480000
	2.800000	2.480000
	2.800000	2.480000
	3.000000	2.560000
	3.000000	2.560000
	3.200000	2.560000
	3.200000	2.560000
	3.200000	2.640000
	3.400000	2.640000
	3.400000	2.640000
	3.600000	2.720000
	3.600000	2.720000
	3.600000	2.720000
	3.800000	2.800000
	3.800000	2.800000
	4.000000	2.800000
	4.000000	2.880000
	4.000000	2.880000
	4.200000	2.880000
	4.200000	2.960000
	4.400000	2.960000
	4.400000	2.960000
	4.600000	3.040000
	4.600000	3.040000
	4.600000	3.040000
	4.800000	3.120000
	4.800000	3.120000
	4.800000	3.120000
	5.000000	3.200000
	5.000000	3.200000
	5.200000	3.200000
	5.200000	3.280000
	5.200000	3.280000
	5.400000	3.280000
	5.400000	3.280000
	5.600000	3.360000
	5.600000	3.360000
	5.800000	3.360000
	5.800000	3.440000
	5.800000	3.440000
	6.000000	3.440000
	6.000000	3.520000
	6.200000	3.520000
	6.200000	3.600000
	6.400000	3.600000
	6.400000	3.600000
	6.400000	3.600000
	6.600000	3.680000
	6.600000	3.680000
	6.800000	3.680000
	6.800000	3.680000
	6.800000	3.760000
	7.000000	3.760000
	7.000000	3.760000
	7.000000	3.840000
	7.200000	3.840000
	7.200000	3.840000
	7.400000	3.840000
	7.400000	3.920000
	7.600000	3.920000
	7.600000	3.920000
	7.600000	4.000000
	7.800000	4.000000
	7.800000	4.000000
	8.000000	4.080000
	8.000000	4.080000
	8.200000	4.080000
	8.200000	4.080000
	8.400000	4.160000
	8.400000	4.160000
	8.400000	4.160000
	8.600000	4.160000
	8.600000	4.240000
	8.800000	4.240000
	8.800000	4.320000
	8.800000	4.320000
	9.000000	4.320000
	9.000000	4.400000
	9.000000	4.400000
	9.200000	4.400000
	9.200000	4.400000
	9.400000	4.480000
	9.400000	4.480000
	9.400000	4.480000
	9.600000	4.480000
	9.600000	4.560000
	9.800000	4.560000
	9.800000	4.560000
	10.000000	4.560000
	10.000000	4.640000
	10.000000	4.640000
	10.200000	4.640000
	10.200000	4.720000
	10.200000	4.720000
	10.400000	4.720000
	10.400000	4.720000
	10.600000	4.800000
	10.600000	4.800000
	10.800000	4.800000
	10.800000	4.880000
	10.800000	4.880000
	11.000000	4.880000
	11.000000	4.880000
	11.000000	4.960000
	11.200000	4.960000
	11.200000	4.960000
	11.400000	5.040000
	11.400000	5.040000
	11.600000	5.040000
	11.600000	5.120000
	11.600000	5.120000
	11.800000	5.120000
	11.800000	5.120000
	12.000000	5.200000
	12.000000	5.200000
	12.200000	5.200000
	12.200000	5.200000
	12.200000	5.200000
	12.400000	5.280000
	12.400000	5.280000
	12.600000	5.280000
	12.600000	5.280000
	12.600000	5.360000
	12.800000	5.360000
	12.800000	5.360000
	12.800000	5.360000
	13.000000	5.440000
	13.000000	5.440000
	13.200000	5.440000
	13.200000	5.520000
	13.200000	5.520000
	13.400000	5.520000
	13.400000	5.520000
	13.600000	5.600000
	13.600000	5.600000
	13.600000	5.600000
	13.800000	5.600000
	13.800000	5.680000
	14.000000	5.680000
	14.000000	5.680000
	14.200000	5.760000
	14.200000	5.760000
	14.200000	5.760000
	14.400000	5.760000
	14.400000	5.840000
	14.400000	5.840000
	14.600000	5.840000
	14.600000	5.840000
	14.600000	5.920000
	14.800000	5.920000
	14.800000	5.920000
	14.800000	5.920000
	15.000000	5.920000
	15.000000	5.920000
	15.200000	6.000000
	15.200000	6.000000
	15.400000	6.000000
	15.400000	6.000000
	15.600000	6.080000
	15.600000	6.080000
	15.600000	6.080000
	15.800000	6.080000
	15.800000	6.160000
	16.000000	6.160000
	16.000000	6.160000
	16.200000	6.160000
	16.200000	6.240000
	16.200000	6.240000
	16.400000	6.240000
	16.400000	6.240000
	16.600000	6.320000
	16.600000	6.320000
	16.600000	6.320000
	16.800000	6.320000
	16.800000	6.400000
	16.800000	6.400000
	17.000000	6.400000
	17.000000	6.480000
	17.200000	6.480000
	17.200000	6.480000
	17.200000	6.480000
	17.400000	6.560000
	17.400000	6.560000
	17.600000	6.560000
	17.600000	6.560000
	17.800000	6.640000
	17.800000	6.640000
	17.800000	6.640000
	18.000000	6.640000
	18.000000	6.640000
	18.200000	6.720000
	18.200000	6.720000
	18.200000	6.720000
	18.400000	6.720000
	18.400000	6.720000
	18.400000	6.800000
	18.600000	6.800000
	18.600000	6.800000
	18.800000	6.800000
	18.800000	6.880000
	18.800000	6.880000
	19.000000	6.880000
	19.000000	6.880000
	19.200000	6.880000
	19.200000	6.960000
	19.400000	6.960000
	19.400000	6.960000
	19.400000	6.960000
	19.600000	7.040000
	19.600000	7.040000
	19.800000	7.040000
	19.800000	7.040000
	19.800000	7.040000
	20.000000	7.120000
	20.000000	7.120000
	20.200000	7.200000
	20.200000	7.120000
	20.000000	7.120000
	20.000000	7.040000
	19.800000	7.040000
	19.800000	6.960000
	19.800000	6.960000
	19.600000	6.880000
	19.600000	6.800000
	19.400000	6.800000
	19.400000	6.720000
	19.400000	6.720000
	19.200000	6.720000
	19.200000	6.640000
	19.000000	6.640000
	19.000000	6.560000
	19.000000	6.560000
	18.800000	6.480000
	18.800000	6.480000
	18.600000	6.400000
	18.600000	6.320000
	18.600000	6.320000
	18.400000	6.240000
	18.400000	6.240000
	18.400000	6.160000
	18.200000	6.160000
	18.200000	6.080000
	18.000000	6.080000
	18.000000	6.000000
	18.000000	6.000000
	17.800000	5.920000
	17.800000	5.920000
	17.600000	5.920000
	17.600000	5.840000
	17.600000	5.840000
	17.400000	5.760000
	17.400000	5.760000
	17.200000	5.680000
	17.200000	5.680000
	17.000000	5.600000
	17.000000	5.520000
	17.000000	5.520000
	16.800000	5.520000
	16.800000	5.440000
	16.600000	5.440000
	16.600000	5.360000
	16.600000	5.360000
	16.400000	5.280000
	16.400000	5.280000
	16.400000	5.200000
	16.200000	5.200000
	16.200000	5.120000
	16.000000	5.120000
	16.000000	5.120000
	15.800000	5.040000
	15.800000	5.040000
	15.800000	4.960000
	15.600000	4.880000
	15.600000	4.880000
	15.600000	4.800000
	15.400000	4.800000
	15.400000	4.720000
	15.200000	4.720000
	15.000000	4.640000
	15.000000	4.640000
	15.000000	4.560000
	14.800000	4.560000
	14.800000	4.560000
	14.600000	4.480000
	14.600000	4.480000
	14.600000	4.400000
	14.400000	4.400000
	14.400000	4.320000
	14.400000	4.320000
	14.400000	4.240000
	14.200000	4.240000
	14.200000	4.160000
	14.000000	4.160000
	14.000000	4.080000
	13.800000	4.080000
	13.800000	4.000000
	13.800000	4.000000
	13.600000	3.920000
	13.600000	3.920000
	13.400000	3.920000
	13.400000	3.840000
	13.400000	3.840000
	13.200000	3.760000
	13.200000	3.760000
	13.000000	3.680000
	13.000000	3.680000
	12.800000	3.600000
	12.800000	3.600000
	12.800000	3.600000
	12.600000	3.520000
	12.600000	3.520000
	12.600000	3.440000
	12.400000	3.360000
	12.400000	3.360000
	12.400000	3.360000
	12.200000	3.280000
	12.200000	3.280000
	12.000000	3.200000
	12.000000	3.200000
	11.800000	3.120000
	11.800000	3.120000
	11.800000	3.120000
	11.600000	3.040000
	11.600000	3.040000
	11.400000	2.960000
	11.400000	2.960000
	11.400000	2.880000
	11.200000	2.880000
	11.200000	2.880000
	11.000000	2.800000
	11.000000	2.800000
	10.800000	2.720000
	10.800000	2.720000
	10.800000	2.640000
	10.600000	2.640000
	10.600000	2.640000
	10.600000	2.560000
	10.400000	2.560000
	10.400000	2.480000
	10.200000	2.480000
	10.200000	2.400000
	10.000000	2.400000
	10.000000	2.320000
	10.000000	2.320000
	9.800000	2.320000
	9.800000	2.240000
	9.600000	2.240000
	9.600000	2.160000
	9.600000	2.160000
	9.400000	2.080000
	9.400000	2.080000
	9.200000	2.000000
	9.200000	2.000000
	9.200000	2.000000
	9.000000	1.920000
	9.000000	1.920000
	8.800000	1.840000
	8.800000	1.840000
	8.800000	1.840000
	8.600000	1.760000
	8.600000	1.760000
	8.400000	1.680000
	8.400000	1.680000
	8.400000	1.680000
	8.200000	1.600000
	8.200000	1.600000
	8.000000	1.520000
	8.000000	1.520000
	7.800000	1.520000
	7.800000	1.440000
	7.600000	1.440000
	7.600000	1.360000
	7.600000	1.360000
	7.400000	1.280000
	7.400000	1.280000
	7.200000	1.200000
	7.200000	1.200000
	7.200000	1.200000
	7.000000	1.120000
	7.000000	1.120000
	6.800000	1.120000
	6.800000	1.040000
	6.800000	1.040000
	6.600000	0.960000
	6.600000	0.960000
	6.400000	0.960000
	6.400000	0.880000
	6.400000	0.880000
	6.200000	0.800000
	6.200000	0.800000
	6.000000	0.800000
	6.000000	0.720000
	6.000000	0.720000
	5.800000	0.640000
	5.800000	0.640000
	5.600000	0.560000
	5.600000	0.560000
	5.600000	0.480000
	5.400000	0.480000
	5.400000	0.480000
	5.200000	0.400000
	5.200000	0.400000
	5.000000	0.400000
	5.000000	0.320000
	4.800000	0.320000
	4.800000	0.320000
	4.800000	0.240000
	4.600000	0.240000
	4.600000	0.240000
	4.600000	0.160000
	4.400000	0.160000
	4.400000	0.080000
	4.200000	0.080000
	4.200000	0.080000
	4.200000	0.000000
	4.000000	0.000000
	4.000000	-0.080000
	3.800000	-0.080000
	3.800000	-0.160000
	3.800000	-0.160000
	3.600000	-0.160000
	3.600000	-0.240000
	3.400000	-0.240000
	3.400000	-0.240000
	3.200000	-0.320000
	3.200000	-0.320000
	3.200000	-0.400000
	3.000000	-0.400000
	3.000000	-0.400000
	2.800000	-0.480000
	2.800000	-0.480000
	2.800000	-0.480000
	2.600000	-0.560000
	2.600000	-0.560000
	2.600000	-0.640000
	2.400000	-0.640000
	2.400000	-0.640000
	2.200000	-0.720000
	2.200000	-0.720000
	2.000000	-0.720000
	2.000000	-0.800000
	2.000000	-0.800000
	1.800000	-0.880000
	1.800000	-0.880000
	1.600000	-0.960000
	1.600000	-0.960000
	1.600000	-0.960000
	1.400000	-1.040000
	1.400000	-1.040000
	1.200000	-1.040000
	1.200000	-1.120000
	1.000000	-1.120000
	1.000000	-1.120000
	1.000000	-1.200000
	0.800000	-1.200000
	0.800000	-1.280000
	0.800000	-1.280000
	0.600000	-1.280000
	0.400000	-1.280000
	0.400000	-1.360000
	0.400000	-1.360000
	0.200000	-1.360000
	0.200000	-1.440000
	0.000000	-1.440000
	0.000000	-1.520000
	0.000000	-1.520000
	-0.200000	-1.520000
	-0.200000	-1.600000
	-0.400000	-1.600000
	-0.400000	-1.600000
	-0.400000	-1.680000
	-0.600000	-1.680000
	-0.600000	-1.680000
	-0.800000	-1.760000
	-0.800000	-1.760000
	-1.000000	-1.760000
	-1.000000	-1.840000
	-1.000000	-1.840000
	-1.200000	-1.840000
	-1.200000	-1.920000
	-1.400000	-1.920000
	-1.400000	-1.920000
	-1.400000	-2.000000
	-1.600000	-2.000000
	-1.600000	-2.000000
	-1.800000	-2.080000
	-1.800000	-2.080000
	-2.000000	-2.080000
	-2.000000	-2.160000
	-2.000000	-2.160000
	-2.200000	-2.160000
	-2.200000	-2.240000
	-2.400000	-2.240000
	-2.400000	-2.240000
	-2.400000	-2.320000
	-2.600000	-2.320000
	-2.600000	-2.400000
	-2.800000	-2.400000
	-2.800000	-2.400000
	-3.000000	-2.400000
	-3.000000	-2.480000
	-3.000000	-2.480000
	-3.200000	-2.560000
	-3.200000	-2.560000
	-3.200000	-2.560000
	-3.400000	-2.640000
	-3.400000	-2.640000
	-3.600000	-2.640000
	-3.600000	-2.640000
	-3.800000	-2.720000
	-3.800000	-2.720000
	-3.800000	-2.720000
	-4.000000	-2.800000
	-4.000000	-2.800000
	-4.200000	-2.800000
	-4.200000	-2.880000
	-4.200000	-2.880000
	-4.400000	-2.880000
	-4.400000	-2.880000
	-4.600000	-2.960000
	-4.600000	-2.960000
	-4.600000	-3.040000
	-4.800000	-3.040000
	-4.800000	-3.040000
	-5.000000	-3.120000
	-5.000000	-3.120000
	-5.000000	-3.120000
	-5.200000	-3.200000
	-5.200000	-3.200000
	-5.400000	-3.200000
	-5.400000	-3.200000
	-5.600000	-3.280000
	-5.600000	-3.280000
	-5.600000	-3.280000
	-5.800000	-3.360000
	-5.800000	-3.360000
	-6.000000	-3.360000
	-6.000000	-3.440000
	-6.000000	-3.440000
	-6.200000	-3.440000
	-6.200000	-3.520000
	-6.400000	-3.520000
	-6.400000	-3.520000
	-6.400000	-3.520000
	-6.600000	-3.600000
	-6.800000	-3.600000
	-6.800000	-3.600000
	-6.800000	-3.680000
	-7.000000	-3.680000
	-7.000000	-3.680000
	-7.000000	-3.760000
	-7.200000	-3.760000
	-7.200000	-3.760000
	-7.400000	-3.840000
	-7.400000	-3.840000
	-7.400000	-3.840000
	-7.600000	-3.920000
	-7.600000	-3.920000
	-7.800000	-3.920000
	-7.800000	-3.920000
	-8.000000	-4.000000
	-8.000000	-4.000000
	-8.000000	-4.000000
	-8.200000	-4.080000
	-8.200000	-4.080000
	-8.400000	-4.080000
	-8.400000	-4.080000
	-8.400000	-4.160000
	-8.600000	-4.160000
	-8.600000	-4.160000
	-8.800000	-4.240000
	-8.800000	-4.240000
	-9.000000	-4.240000
	-9.000000	-4.240000
	-9.000000	-4.320000
	-9.200000	-4.320000
	-9.200000	-4.320000
	-9.200000	-4.400000
	-9.400000	-4.400000
	-9.400000	-4.400000
	-9.600000	-4.480000
	-9.600000	-4.480000
	-9.600000	-4.480000
	-9.800000	-4.560000
	-9.800000	-4.560000
	-10.000000	-4.560000
	-10.000000	-4.560000
	-10.200000	-4.640000
	-10.200000	-4.640000
	-10.200000	-4.640000
	-10.400000	-4.640000
	-10.400000	-4.720000
	-10.600000	-4.720000
	-10.600000	-4.720000
	-10.800000	-4.720000
	-10.800000	-4.800000
	-10.800000	-4.800000
	-11.000000	-4.800000
	-11.000000	-4.880000
	-11.000000	-4.880000
	-11.200000	-4.880000
	-11.200000	-4.880000
	-11.400000	-4.960000
	-11.400000	-4.960000
	-11.400000	-4.960000
	-11.600000	-4.960000
	-11.600000	-5.040000
	-11.800000	-5.040000
	-11.800000	-5.040000
	-11.800000	-5.120000
	-12.000000	-5.120000
	-12.000000	-5.120000
	-12.200000	-5.200000
	-12.200000	-5.200000
	-12.200000	-5.200000
	-12.400000	-5.280000
	-12.400000	-5.280000
	-12.600000	-5.280000
	-12.600000	-5.280000
	-12.800000	-5.360000
	-12.800000	-5.360000
	-12.800000	-5.360000
	-13.000000	-5.360000
	-13.000000	-5.360000
	-13.000000	-5.440000
	-13.200000	-5.440000
	-13.200000	-5.440000
	-13.400000	-5.440000
	-13.400000	-5.520000
	-13.400000	-5.520000
	-13.600000	-5.520000
	-13.600000	-5.520000
	-13.800000	-5.600000
	-13.800000	-5.600000
	-14.000000	-5.600000
	-14.000000	-5.680000
	-14.200000	-5.680000
	-14.200000	-5.680000
	-14.200000	-5.680000
	-14.400000	-5.760000
	-14.400000	-5.760000
	-14.600000	-5.760000
	-14.600000	-5.760000
	-14.600000	-5.840000
	-14.800000	-5.840000
	-14.800000	-5.840000
	-15.000000	-5.920000
	-15.000000	-5.920000
	-15.000000	-5.920000
	-15.200000	-5.920000
	-15.200000	-6.000000
	-15.200000	-6.000000
	-15.400000	-6.000000
	-15.400000	-6.000000
	-15.600000	-6.080000
	-15.600000	-6.080000
	-15.800000	-6.080000
	-15.800000	-6.160000
	-15.800000	-6.160000
	-16.000000	-6.160000
	-16.000000	-6.160000
	-16.200000	-6.160000
	-16.200000	-6.240000
	-16.200000	-6.240000
	-16.400000	-6.240000
	-16.400000	-6.240000
	-16.600000	-6.240000
	-16.600000	-6.320000
	-16.800000	-6.320000
	-16.800000	-6.320000
	-16.800000	-6.320000
	-17.000000	-6.400000
	-17.000000	-6.400000
	-17.000000	-6.400000
	-17.000000	-6.400000
	-17.200000	-6.400000
	-17.200000	-6.480000
	-17.400000	-6.480000
	-17.400000	-6.480000
	-17.600000	-6.480000
	-17.600000	-6.560000
	-17.600000	-6.560000
	-17.800000	-6.640000
	-17.800000	-6.640000
	-18.000000	-6.640000
	-18.000000	-6.640000
	-18.000000	-6.720000
	-18.200000	-6.720000
	-18.200000	-6.720000
	-18.400000	-6.720000
	-18.400000	-6.720000
	-18.400000	-6.800000
	-18.600000	-6.800000
	-18.600000	-6.800000
	-18.600000	-6.800000
	-18.800000	-6.880000
	-18.800000	-6.880000
	-19.000000	-6.880000
	-19.000000	-6.880000
	-19.200000	-6.960000
	-19.200000	-6.960000
	-19.200000	-6.960000
	-19.400000	-6.960000
	-19.400000	-6.960000
	-19.400000	-7.040000
	-19.600000	-7.040000
	-19.600000	-7.040000
	-19.800000	-7.040000
	-19.800000	-7.040000
	-19.800000	-7.040000
	-20.000000	-7.120000
	-20.000000	-7.120000
	-20.200000	-7.120000
	-20.200000	-7.120000
	-20.200000	-7.120000
	-20.400000	-7.200000
	-20.400000	-7.200000
	-20.400000	-7.120000
	-20.200000	-7.120000
	-20.200000	-7.040000
	-20.000000	-7.040000
	-20.000000	-6.960000
	-20.000000	-6.960000
	-19.800000	-6.960000
	-19.800000	-6.880000
	-19.600000	-6.880000
	-19.600000	-6.800000
	-19.600000	-6.720000
	-19.400000	-6.720000
	-19.400000	-6.720000
	-19.200000	-6.640000
	-19.200000	-6.560000
	-19.200000	-6.560000
	-19.000000	-6.480000
	-19.000000	-6.480000
	-18.800000	-6.400000
	-18.800000	-6.400000
	-18.800000	-6.320000
	-18.600000	-6.320000
	-18.600000	-6.240000
	-18.600000	-6.240000
	-18.400000	-6.160000
	-18.400000	-6.160000
	-18.200000	-6.080000
	-18.200000	-6.080000
	-18.000000	-6.000000
	-18.000000	-6.000000
	-18.000000	-5.920000
	-17.800000	-5.920000
	-17.800000	-5.840000
	-17.600000	-5.760000
	-17.600000	-5.760000
	-17.600000	-5.680000
	-17.400000	-5.680000
	-17.400000	-5.600000
	-17.200000	-5.600000
	-17.200000	-5.520000
	-17.200000	-5.520000
	-17.000000	-5.440000
	-17.000000	-5.440000
	-17.000000	-5.440000
	-16.800000	-5.360000
	-16.800000	-5.360000
	-16.800000	-5.280000
	-16.600000	-5.280000
	-16.600000	-5.200000
	-16.400000	-5.200000
	-16.400000	-5.120000
	-16.400000	-5.120000
	-16.200000	-5.040000
	-16.200000	-5.040000
	-16.000000	-4.960000
	-16.000000	-4.960000
	-16.000000	-4.880000
	-15.800000	-4.880000
	-15.800000	-4.800000
	-15.600000	-4.800000
	-15.600000	-4.720000
	-15.600000	-4.720000
	-15.400000	-4.640000
	-15.400000	-4.640000
	-15.200000	-4.560000
	-15.200000	-4.560000
	-15.000000	-4.560000
	-15.000000	-4.480000
	-15.000000	-4.480000
	-14.800000	-4.400000
	-14.800000	-4.320000
	-14.800000	-4.320000
	-14.600000	-4.240000
	-14.600000	-4.240000
	-14.400000	-4.240000
	-14.400000	-4.160000
	-14.400000	-4.160000
	-14.200000	-4.080000
	-14.200000	-4.080000
	-14.000000	-4.000000
	-14.000000	-4.000000
	-13.800000	-3.920000
	-13.800000	-3.920000
	-13.600000	-3.840000
	-13.600000	-3.840000
	-13.600000	-3.840000
	-13.400000	-3.760000
	-13.400000	-3.760000
	-13.200000	-3.680000
	-13.200000	-3.680000
	-13.200000	-3.600000
	-13.000000	-3.600000
	-13.000000	-3.520000
	-12.800000	-3.520000
	-12.800000	-3.440000
	-12.800000	-3.440000
	-12.600000	-3.360000
	-12.600000	-3.360000
	-12.400000	-3.360000
	-12.400000	-3.280000
	-12.400000	-3.280000
	-12.200000	-3.200000
	-12.200000	-3.200000
	-12.000000	-3.120000
	-12.000000	-3.120000
	-12.000000	-3.040000
	-11.800000	-3.040000
	-11.800000	-3.040000
	-11.600000	-2.960000
	-11.600000	-2.880000
	-11.400000	-2.880000
	-11.400000	-2.880000
	-11.400000	-2.800000
	-11.200000	-2.800000
	-11.200000	-2.800000
	-11.000000	-2.720000
	-11.000000	-2.640000
	-11.000000	-2.640000
	-10.800000	-2.640000
	-10.800000	-2.560000
	-10.800000	-2.560000
	-10.600000	-2.480000
	-10.600000	-2.480000
	-10.400000	-2.480000
	-10.400000	-2.400000
	-10.400000	-2.400000
	-10.200000	-2.320000
	-10.200000	-2.320000
	-10.000000	-2.240000
	-10.000000	-2.240000
	-9.800000	-2.160000
	-9.800000	-2.160000
	-9.800000	-2.080000
	-9.600000	-2.080000
	-9.600000	-2.080000
	-9.400000	-2.000000
	-9.400000	-2.000000
	-9.400000	-2.000000
	-9.200000	-1.920000
	-9.200000	-1.920000
	-9.000000	-1.840000
	-9.000000	-1.840000
	-9.000000	-1.760000
	-8.800000	-1.760000
	-8.800000	-1.760000
	-8.600000	-1.680000
	-8.600000	-1.680000
	-8.600000	-1.600000
	-8.400000	-1.600000
	-8.400000	-1.600000
	-8.200000	-1.520000
	-8.200000	-1.440000
	-8.200000	-1.440000
	-8.000000	-1.440000
	-8.000000	-1.360000
	-7.800000	-1.360000
	-7.800000	-1.280000
	-7.800000	-1.280000
	-7.600000	-1.280000
	-7.600000	-1.200000
	-7.400000	-1.200000
	-7.400000	-1.200000
	-7.200000	-1.120000
	-7.200000	-1.120000
	-7.200000	-1.040000
	-7.000000	-1.040000
	-7.000000	-1.040000
	-7.000000	-0.960000
	-6.800000	-0.960000
	-6.800000	-0.880000
	-6.600000	-0.880000
	-6.600000	-0.880000
	-6.400000	-0.800000
	-6.400000	-0.720000
	-6.200000	-0.720000
	-6.200000	-0.720000
	-6.000000	-0.640000
	-6.000000	-0.640000
	-6.000000	-0.560000
	-5.800000	-0.560000
	-5.800000	-0.560000
	-5.600000	-0.480000
	-5.600000	-0.480000
	-5.600000	-0.400000
	-5.400000	-0.400000
	-5.400000	-0.400000
	-5.200000	-0.320000
	-5.200000	-0.320000
	-5.200000	-0.240000
	-5.000000	-0.240000
	-5.000000	-0.240000
	-5.000000	-0.160000
	-4.800000	-0.160000
	-4.800000	-0.160000
	-4.600000	-0.080000
	-4.600000	-0.080000
	-4.400000	0.000000
	-4.400000	0.000000
	-4.400000	0.080000
	-4.200000	0.080000
	-4.200000	0.080000
	-4.000000	0.160000
	-4.000000	0.160000
	-3.800000	0.240000
	-3.800000	0.240000
	-3.800000	0.240000
	-3.600000	0.320000
	-3.600000	0.320000
	-3.400000	0.320000
	-3.400000	0.320000
	-3.400000	0.400000
	-3.200000	0.400000
	-3.200000	0.480000
	-3.000000	0.480000
	-3.000000	0.480000
	-3.000000	0.560000
	-2.800000	0.560000
	-2.800000	0.560000
	-2.800000	0.640000
	-2.600000	0.640000
	-2.600000	0.720000
	-2.400000	0.720000
	-2.400000	0.800000
	-2.200000	0.800000
	-2.200000	0.800000
	-2.200000	0.880000
	-2.000000	0.880000
	-2.000000	0.880000
	-1.800000	0.960000
	-1.800000	0.960000
	-1.600000	1.040000
	-1.600000	1.040000
	-1.600000	1.040000
	-1.400000	1.120000
	-1.400000	1.120000
	-1.200000	1.120000
	-1.200000	1.120000
	-1.000000	1.200000
	-1.000000	1.200000
	-1.000000	1.200000
	-0.800000	1.280000
	-0.800000	1.280000
	-0.600000	1.280000
	-0.600000	1.360000
	-0.600000	1.440000
	-0.400000	1.440000
	-0.400000	1.440000
	-0.200000	1.520000
	-0.200000	1.520000
	-0.200000	1.520000
	0.000000	1.520000
	0.000000	1.600000
	0.200000	1.600000
	0.200000	1.600000
	0.200000	1.680000
	0.400000	1.680000
	0.400000	1.680000
	0.600000	1.760000
	0.600000	1.760000
	0.800000	1.840000
	0.800000	1.840000
	0.800000	1.840000
	1.000000	1.920000
	1.000000	1.920000
	1.200000	1.920000
	1.200000	1.920000
	1.400000	2.000000
	1.400000	2.000000
	1.400000	2.000000
	1.600000	2.080000
	1.600000	2.080000
	1.800000	2.160000
	1.800000	2.160000
	1.800000	2.160000
	2.000000	2.240000
	2.000000	2.240000
	2.200000	2.240000
	2.200000	2.320000
	2.400000	2.320000
	2.400000	2.320000
	2.400000	2.400000
	2.600000	2.400000
	2.600000	2.400000
	2.800000	2.480000
	2.800000	2.480000
	2.800000	2.480000
	3.000000	2.560000
	3.000000	2.560000
	3.200000	2.560000
	3.200000	2.640000
	3.200000	2.640000
	3.400000	2.640000
	3.400000	2.640000
	3.600000	2.720000
	3.600000	2.720000
	3.600000	2.720000
	3.800000	2.800000
	3.800000	2.800000
	4.000000	2.800000
	4.000000	2.880000
	4.000000	2.880000
	4.200000	2.880000
	4.200000	2.960000
	4.400000	2.960000
	4.400000	2.960000
	4.600000	3.040000
	4.600000	3.040000
	4.600000	3.040000
	4.800000	3.120000
	4.800000	3.120000
	4.800000	3.120000
	5.000000	3.200000
	5.000000	3.200000
	5.200000	3.200000
	5.200000	3.280000
	5.200000	3.280000
	5.400000	3.280000
	5.400000	3.280000
	5.600000	3.360000
	5.600000	3.360000
	5.800000	3.360000
	5.800000	3.440000
	5.800000	3.440000
	6.000000	3.440000
	6.000000	3.520000
	6.200000	3.520000
	6.200000	3.600000
	6.200000	3.600000
	6.400000	3.600000
	6.400000	3.600000
	6.600000	3.680000
	6.600000	3.680000
	6.800000	3.680000
	6.800000	3.680000
	6.800000	3.760000
	7.000000	3.760000
	7.000000	3.760000
	7.000000	3.840000
	7.200000	3.840000
	7.200000	3.840000
	7.400000	3.840000
	7.400000	3.920000
	7.400000	3.920000
	7.600000	3.920000
	7.600000	4.000000
	7.800000	4.000000
	7.800000	4.000000
	8.000000	4.080000
	8.000000	4.080000
	8.200000	4.080000
	8.200000	4.080000
	8.400000	4.160000
	8.400000	4.160000
	8.400000	4.160000
	8.600000	4.160000
	8.600000	4.240000
	8.800000	4.240000
	8.800000	4.320000
	8.800000	4.320000
	9.000000	4.320000
	9.000000	4.400000
	9.000000	4.400000
	9.200000	4.400000
	9.200000	4.400000
	9.400000	4.400000
	9.400000	4.480000
	9.400000	4.480000
	9.600000	4.480000
	9.600000	4.560000
	9.800000	4.560000
	9.800000	4.560000
	10.000000	4.560000
	10.000000	4.640000
	10.000000	4.640000
	10.200000	4.640000
	10.200000	4.720000
	10.400000	4.720000
	10.400000	4.720000
	10.400000	4.720000
	10.600000	4.800000
	10.600000	4.800000
	10.800000	4.800000
	10.800000	4.800000
	10.800000	4.880000
	11.000000	4.880000
	11.000000	4.880000
	11.000000	4.960000
	11.200000	4.960000
	11.200000	4.960000
	11.400000	5.040000
	11.400000	5.040000
	11.600000	5.040000
	11.600000	5.120000
	11.600000	5.120000
	11.800000	5.120000
	11.800000	5.120000
	12.000000	5.200000
	12.000000	5.200000
	12.000000	5.200000
	12.200000	5.200000
	12.200000	5.200000
	12.400000	5.280000
	12.400000	5.280000
	12.600000	5.280000
	12.600000	5.280000
	12.600000	5.360000
	12.800000	5.360000
	12.800000	5.360000
	12.800000	5.360000
	13.000000	5.440000
	13.000000	5.440000
	13.000000	5.440000
	13.200000	5.520000
	13.200000	5.520000
	13.400000	5.520000
	13.400000	5.520000
	13.600000	5.600000
	13.600000	5.600000
	13.800000	5.600000
	13.800000	5.600000
	13.800000	5.680000
	14.000000	5.680000
	14.000000	5.680000
	14.200000	5.760000
	14.200000	5.760000
	14.200000	5.760000
	14.400000	5.760000
	14.400000	5.840000
	14.400000	5.840000
	14.600000	5.840000
	14.600000	5.840000
	14.600000	5.920000
	14.800000	5.920000
	14.800000	5.920000
	15.000000	5.920000
	15.000000	5.920000
	15.000000	5.920000
	15.200000	6.000000
	15.400000	6.000000
	15.400000	6.000000
	15.400000	6.000000
	15.600000	6.080000
	15.600000	6.080000
	15.800000	6.080000
	15.800000	6.080000
	15.800000	6.160000
	16.000000	6.160000
	16.000000	6.160000
	16.200000	6.160000
	16.200000	6.240000
	16.200000	6.240000
	16.400000	6.240000
	16.400000	6.240000
	16.400000	6.320000
	16.600000	6.320000
	16.600000	6.320000
	16.800000	6.320000
	16.800000	6.400000
	16.800000	6.400000
	17.000000	6.400000
	17.000000	6.480000
	17.200000	6.480000
	17.200000	6.480000
	17.400000	6.480000
	17.400000	6.560000
	17.400000	6.560000
	17.600000	6.560000
	17.600000	6.560000
	17.600000	6.640000
	17.800000	6.640000
	17.800000	6.640000
	18.000000	6.640000
	18.000000	6.640000
	18.200000	6.720000
	18.200000	6.720000
	18.200000	6.720000
	18.400000	6.720000
	18.400000	6.720000
	18.400000	6.800000
	18.600000	6.800000
	18.600000	6.800000
	18.800000	6.800000
	18.800000	6.800000
	18.800000	6.880000
	19.000000	6.880000
	19.000000	6.880000
	19.200000	6.880000
	19.200000	6.960000
	19.400000	6.960000
	19.400000	6.960000
	19.400000	6.960000
	19.600000	7.040000
	19.600000	7.040000
	19.800000	7.040000
	19.800000	7.040000
	19.800000	7.040000
	20.000000	7.120000
	20.000000	7.120000
	20.200000	7.120000
	20.200000	7.120000
	20.000000	7.120000
	20.000000	7.040000
	20.000000	7.040000
	19.800000	6.960000
	19.800000	6.880000
	19.600000	6.880000
	19.600000	6.800000
	19.400000	6.800000
	19.400000	6.720000
	19.400000	6.720000
	19.200000	6.720000
	19.200000	6.640000
	19.000000	6.640000
	19.000000	6.560000
	19.000000	6.560000
	18.800000	6.480000
	18.800000	6.480000
	18.600000	6.400000
	18.600000	6.320000
	18.600000	6.320000
	18.400000	6.240000
	18.400000	6.240000
	18.400000	6.160000
	18.200000	6.160000
	18.200000	6.080000
	18.000000	6.080000
	18.000000	6.000000
	18.000000	6.000000
	17.800000	5.920000
	17.800000	5.920000
	17.600000	5.920000
	17.600000	5.840000
	17.600000	5.840000
	17.400000	5.760000
	17.400000	5.760000
	17.200000	5.680000
	17.200000	5.680000
	17.000000	5.600000
	17.000000	5.600000
	17.000000	5.520000
	16.800000	5.520000
	16.800000	5.440000
	16.600000	5.440000
	16.600000	5.360000
	16.600000	5.360000
	16.400000	5.280000
	16.400000	5.280000
	16.400000	5.200000
	16.200000	5.200000
	16.200000	5.120000
	16.000000	5.120000
	16.000000	5.120000
	16.000000	5.040000
	15.800000	5.040000
	15.800000	4.960000
	15.600000	4.880000
	15.600000	4.880000
	15.400000	4.800000
	15.400000	4.800000
	15.400000	4.720000
	15.200000	4.720000
	15.200000	4.640000
	15.000000	4.640000
	15.000000	4.560000
	14.800000	4.560000
	14.800000	4.480000
	14.600000	4.480000
	14.600000	4.480000
	14.600000	4.400000
	14.400000	4.400000
	14.400000	4.320000
	14.400000	4.320000
	14.400000	4.240000
	14.200000	4.240000
	14.200000	4.160000
	14.000000	4.160000
	14.000000	4.080000
	13.800000	4.080000
	13.800000	4.000000
	13.800000	4.000000
	13.600000	3.920000
	13.600000	3.920000
	13.400000	3.920000
	13.400000	3.840000
	13.400000	3.840000
	13.200000	3.760000
	13.200000	3.760000
	13.000000	3.680000
	13.000000	3.680000
	13.000000	3.600000
	12.800000	3.600000
	12.800000	3.600000
	12.800000	3.520000
	12.600000	3.440000
	12.600000	3.440000
	12.400000	3.440000
	12.400000	3.360000
	12.200000	3.360000
	12.200000	3.280000
	12.200000	3.280000
	12.000000	3.200000
	12.000000	3.200000
	11.800000	3.120000
	11.800000	3.120000
	11.800000	3.120000
	11.600000	3.040000
	11.600000	3.040000
	11.400000	2.960000
	11.400000	2.960000
	11.400000	2.880000
	11.200000	2.880000
	11.200000	2.880000
	11.000000	2.800000
	11.000000	2.720000
	11.000000	2.720000
	10.800000	2.720000
	10.800000	2.640000
	10.800000	2.640000
	10.600000	2.560000
	10.600000	2.560000
	10.400000	2.560000
	10.400000	2.480000
	10.200000	2.480000
	10.200000	2.400000
	10.200000	2.400000
	10.000000	2.320000
	10.000000	2.320000
	9.800000	2.320000
	9.800000	2.240000
	9.800000	2.240000
	9.600000	2.160000
	9.600000	2.160000
	9.400000	2.080000
	9.400000	2.080000
	9.200000	2.000000
	9.200000	2.000000
	9.200000	2.000000
	9.000000	1.920000
	9.000000	1.920000
	8.800000	1.920000
	8.800000	1.840000
	8.800000	1.840000
	8.600000	1.760000
	8.600000	1.760000
	8.400000	1.680000
	8.400000	1.680000
	8.400000	1.680000
	8.200000	1.600000
	8.200000	1.600000
	8.000000	1.520000
	8.000000	1.520000
	7.800000	1.440000
	7.800000	1.440000
	7.600000	1.440000
	7.600000	1.360000
	7.600000	1.360000
	7.400000	1.280000
	7.400000	1.280000
	7.200000	1.200000
	7.200000	1.200000
	7.200000	1.200000
	7.000000	1.120000
	7.000000	1.120000
	6.800000	1.120000
	6.800000	1.040000
	6.800000	1.040000
	6.600000	0.960000
	6.600000	0.960000
	6.400000	0.960000
	6.400000	0.880000
	6.400000	0.880000
	6.200000	0.800000
	6.200000	0.800000
	6.000000	0.800000
	6.000000	0.720000
	6.000000	0.720000
	5.800000	0.640000
	5.800000	0.640000
	5.600000	0.560000
	5.600000	0.560000
	5.400000	0.560000
	5.400000	0.480000
	5.400000	0.480000
	5.200000	0.400000
	5.200000	0.400000
	5.000000	0.400000
	5.000000	0.320000
	5.000000	0.320000
	4.800000	0.320000
	4.800000	0.240000
	4.800000	0.240000
	4.600000	0.160000
	4.600000	0.160000
	4.400000	0.160000
	4.400000	0.080000
	4.200000	0.080000
	4.200000	0.080000
	4.200000	0.000000
	4.000000	0.000000
	4.000000	-0.080000
	3.800000	-0.080000
	3.800000	-0.160000
	3.800000	-0.160000
	3.600000	-0.160000
	3.600000	-0.240000
	3.400000	-0.240000
	3.400000	-0.240000
	3.200000	-0.320000
	3.200000	-0.320000
	3.200000	-0.400000
	3.000000	-0.400000
	3.000000	-0.400000
	2.800000	-0.480000
	2.800000	-0.480000
	2.800000	-0.480000
	2.600000	-0.560000
	2.600000	-0.560000
	2.600000	-0.640000
	2.400000	-0.640000
	2.400000	-0.640000
	2.200000	-0.720000
	2.200000	-0.720000
	2.000000	-0.720000
	2.000000	-0.800000
	2.000000	-0.880000
	1.800000	-0.880000
	1.800000	-0.880000
	1.600000	-0.960000
	1.600000	-0.960000
	1.600000	-0.960000
	1.400000	-1.040000
	1.400000	-1.040000
	1.200000	-1.040000
	1.200000	-1.120000
	1.000000	-1.120000
	1.000000	-1.120000
	1.000000	-1.200000
	0.800000	-1.200000
	0.800000	-1.200000
	0.800000	-1.280000
	0.600000	-1.280000
	0.400000	-1.280000
	0.400000	-1.360000
	0.400000	-1.360000
	0.200000	-1.360000
	0.200000	-1.440000
	0.000000	-1.440000
	0.000000	-1.520000
	0.000000	-1.520000
	-0.200000	-1.520000
	-0.200000	-1.600000
	-0.400000	-1.600000
	-0.400000	-1.600000
	-0.400000	-1.680000
	-0.600000	-1.680000
	-0.600000	-1.680000
	-0.800000	-1.760000
	-0.800000	-1.760000
	-0.800000	-1.760000
	-1.000000	-1.840000
	-1.000000	-1.840000
	-1.200000	-1.840000
	-1.200000	-1.920000
	-1.400000	-1.920000
	-1.400000	-1.920000
	-1.400000	-2.000000
	-1.600000	-2.000000
	-1.600000	-2.000000
	-1.800000	-2.080000
	-1.800000	-2.080000
	-2.000000	-2.080000
	-2.000000	-2.160000
	-2.000000	-2.160000
	-2.200000	-2.160000
	-2.200000	-2.240000
	-2.400000	-2.240000
	-2.400000	-2.240000
	-2.400000	-2.320000
	-2.600000	-2.320000
	-2.600000	-2.400000
	-2.800000	-2.400000
	-2.800000	-2.400000
	-3.000000	-2.400000
	-3.000000	-2.480000
	-3.000000	-2.480000
	-3.200000	-2.560000
	-3.200000	-2.560000
	-3.200000	-2.560000
	-3.400000	-2.640000
	-3.400000	-2.640000
	-3.600000	-2.640000
	-3.600000	-2.640000
	-3.600000	-2.720000
	-3.800000	-2.720000
	-3.800000	-2.720000
	-4.000000	-2.800000
	-4.000000	-2.800000
	-4.200000	-2.800000
	-4.200000	-2.880000
	-4.200000	-2.880000
	-4.400000	-2.880000
	-4.400000	-2.880000
	-4.600000	-2.960000
	-4.600000	-2.960000
	-4.600000	-3.040000
	-4.800000	-3.040000
	-4.800000	-3.040000
	-5.000000	-3.120000
	-5.000000	-3.120000
	-5.000000	-3.120000
	-5.200000	-3.120000
	-5.200000	-3.200000
	-5.400000	-3.200000
	-5.400000	-3.200000
	-5.600000	-3.280000
	-5.600000	-3.280000
	-5.600000	-3.280000
	-5.800000	-3.360000
	-5.800000	-3.360000
	-6.000000	-3.360000
	-6.000000	-3.440000
	-6.000000	-3.440000
	-6.200000	-3.440000
	-6.200000	-3.440000
	-6.400000	-3.520000
	-6.400000	-3.520000
	-6.400000	-3.520000
	-6.600000	-3.600000
	-6.800000	-3.600000
	-6.800000	-3.600000
	-7.000000	-3.680000
	-7.000000	-3.680000
	-7.000000	-3.760000
	-7.000000	-3.760000
	-7.200000	-3.760000
	-7.200000	-3.760000
	-7.400000	-3.840000
	-7.400000	-3.840000
	-7.600000	-3.840000
	-7.600000	-3.840000
	-7.600000	-3.920000
	-7.800000	-3.920000
	-7.800000	-3.920000
	-8.000000	-4.000000
	-8.000000	-4.000000
	-8.000000	-4.000000
	-8.200000	-4.080000
	-8.200000	-4.080000
	-8.400000	-4.080000
	-8.400000	-4.080000
	-8.400000	-4.160000
	-8.600000	-4.160000
	-8.600000	-4.160000
	-8.800000	-4.240000
	-8.800000	-4.240000
	-9.000000	-4.240000
	-9.000000	-4.240000
	-9.000000	-4.320000
	-9.200000	-4.320000
	-9.200000	-4.320000
	-9.200000	-4.400000
	-9.400000	-4.400000
	-9.400000	-4.400000
	-9.600000	-4.480000
	-9.600000	-4.480000
	-9.600000	-4.480000
	-9.800000	-4.560000
	-9.800000	-4.560000
	-10.000000	-4.560000
	-10.000000	-4.560000
	-10.200000	-4.560000
	-10.200000	-4.640000
	-10.200000	-4.640000
	-10.400000	-4.640000
	-10.400000	-4.720000
	-10.600000	-4.720000
	-10.600000	-4.720000
	-10.800000	-4.720000
	-10.800000	-4.800000
	-10.800000	-4.800000
	-11.000000	-4.800000
	-11.000000	-4.800000
	-11.000000	-4.880000
	-11.200000	-4.880000
	-11.200000	-4.880000
	-11.400000	-4.960000
	-11.400000	-4.960000
	-11.400000	-4.960000
	-11.600000	-4.960000
	-11.600000	-5.040000
	-11.800000	-5.040000
	-11.800000	-5.040000
	-11.800000	-5.120000
	-12.000000	-5.120000
	-12.000000	-5.120000
	-12.200000	-5.200000
	-12.200000	-5.200000
	-12.200000	-5.200000
	-12.400000	-5.200000
	-12.400000	-5.280000
	-12.600000	-5.280000
	-12.600000	-5.280000
	-12.600000	-5.360000
	-12.800000	-5.360000
	-12.800000	-5.360000
	-13.000000	-5.360000
	-13.000000	-5.360000
	-13.000000	-5.440000
	-13.200000	-5.440000
	-13.200000	-5.440000
	-13.400000	-5.440000
	-13.400000	-5.520000
	-13.400000	-5.520000
	-13.600000	-5.520000
	-13.600000	-5.520000
	-13.800000	-5.600000
	-13.800000	-5.600000
	-14.000000	-5.600000
	-14.000000	-5.680000
	-14.200000	-5.680000
	-14.200000	-5.680000
	-14.200000	-5.680000
	-14.400000	-5.760000
	-14.400000	-5.760000
	-14.600000	-5.760000
	-14.600000	-5.760000
	-14.600000	-5.840000
	-14.800000	-5.840000
	-14.800000	-5.840000
	-15.000000	-5.920000
	-15.000000	-5.920000
	-15.000000	-5.920000
	-15.200000	-5.920000
	-15.200000	-6.000000
	-15.200000	-6.000000
	-15.400000	-6.000000
	-15.400000	-6.000000
	-15.600000	-6.080000
	-15.600000	-6.080000
	-15.800000	-6.080000
	-15.800000	-6.080000
	-15.800000	-6.160000
	-16.000000	-6.160000
	-16.000000	-6.160000
	-16.200000	-6.160000
	-16.200000	-6.240000
	-16.200000	-6.240000
	-16.400000	-6.240000
	-16.400000	-6.240000
	-16.600000	-6.240000
	-16.600000	-6.320000
	-16.800000	-6.320000
	-16.800000	-6.320000
	-16.800000	-6.320000
	-17.000000	-6.400000
	-17.000000	-6.400000
	-17.000000	-6.400000
	-17.000000	-6.400000
	-17.200000	-6.480000
	-17.200000	-6.480000
	-17.400000	-6.480000
	-17.400000	-6.480000
	-17.600000	-6.480000
	-17.600000	-6.560000
	-17.600000	-6.560000
	-17.800000	-6.640000
	-17.800000	-6.640000
	-18.000000	-6.640000
	-18.000000	-6.640000
	-18.000000	-6.720000
	-18.200000	-6.720000
	-18.200000	-6.720000
	-18.400000	-6.720000
	-18.400000	-6.720000
	-18.400000	-6.800000
	-18.600000	-6.800000
	-18.600000	-6.800000
	-18.600000	-6.800000
	-18.800000	-6.880000
	-18.800000	-6.880000
	-19.000000	-6.880000
	-19.000000	-6.880000
	-19.000000	-6.960000
	-19.200000	-6.960000
	-19.200000	-6.960000
	-19.400000	-6.960000
	-19.400000	-6.960000
	-19.400000	-6.960000
	-19.600000	-7.040000
	-19.600000	-7.040000
	-19.800000	-7.040000
	-19.800000	-7.040000
	-19.800000	-7.040000
	-20.000000	-7.120000
	-20.000000	-7.120000
	-20.200000	-7.120000
	-20.200000	-7.120000
	-20.200000	-7.120000
	-20.400000	-7.200000
	-20.400000	-7.200000
	-20.400000	-7.120000
	-20.200000	-7.120000
	-20.200000	-7.040000
	-20.000000	-7.040000
	-20.000000	-6.960000
	-20.000000	-6.960000
	-19.800000	-6.960000
	-19.800000	-6.880000
	-19.600000	-6.880000
	-19.600000	-6.800000
	-19.600000	-6.720000
	-19.400000	-6.720000
	-19.400000	-6.640000
	-19.200000	-6.640000
	-19.200000	-6.560000
	-19.200000	-6.560000
	-19.000000	-6.480000
	-19.000000	-6.480000
	-18.800000	-6.400000
	-18.800000	-6.400000
	-18.800000	-6.320000
	-18.600000	-6.240000
	-18.600000	-6.240000
	-18.600000	-6.240000
	-18.400000	-6.160000
	-18.400000	-6.160000
	-18.200000	-6.080000
	-18.200000	-6.080000
	-18.000000	-6.000000
	-18.000000	-6.000000
	-18.000000	-5.920000
	-17.800000	-5.920000
	-17.800000	-5.840000
	-17.600000	-5.760000
	-17.600000	-5.760000
	-17.600000	-5.680000
	-17.400000	-5.680000
	-17.400000	-5.600000
	-17.200000	-5.600000
	-17.200000	-5.520000
	-17.000000	-5.520000
	-17.000000	-5.440000
	-17.000000	-5.440000
	-17.000000	-5.440000
	-16.800000	-5.360000
	-16.800000	-5.360000
	-16.800000	-5.280000
	-16.600000	-5.280000
	-16.600000	-5.200000
	-16.400000	-5.200000
	-16.400000	-5.120000
	-16.400000	-5.120000
	-16.200000	-5.040000
	-16.200000	-5.040000
	-16.000000	-4.960000
	-16.000000	-4.960000
	-16.000000	-4.880000
	-15.800000	-4.880000
	-15.800000	-4.800000
	-15.600000	-4.800000
	-15.600000	-4.720000
	-15.600000	-4.720000
	-15.400000	-4.640000
	-15.400000	-4.640000
	-15.200000	-4.560000
	-15.200000	-4.560000
	-15.000000	-4.560000
	-15.000000	-4.480000
	-15.000000	-4.480000
	-14.800000	-4.400000
	-14.800000	-4.320000
	-14.800000	-4.320000
	-14.600000	-4.240000
	-14.600000	-4.240000
	-14.400000	-4.160000
	-14.400000	-4.160000
	-14.400000	-4.160000
	-14.200000	-4.080000
	-14.200000	-4.080000
	-14.000000	-4.000000
	-14.000000	-4.000000
	-14.000000	-3.920000
	-13.800000	-3.920000
	-13.600000	-3.840000
	-13.600000	-3.840000
	-13.600000	-3.840000
	-13.400000	-3.760000
	-13.400000	-3.760000
	-13.200000	-3.680000
	-13.200000	-3.680000
	-13.200000	-3.600000
	-13.000000	-3.600000
	-13.000000	-3.520000
	-12.800000	-3.520000
	-12.800000	-3.440000
	-12.800000	-3.440000
	-12.600000	-3.440000
	-12.600000	-3.360000
	-12.400000	-3.360000
	-12.400000	-3.280000
	-12.400000	-3.280000
	-12.200000	-3.200000
	-12.200000	-3.200000
	-12.000000	-3.120000
	-12.000000	-3.120000
	-12.000000	-3.120000
	-11.800000	-3.040000
	-11.800000	-3.040000
	-11.600000	-2.960000
	-11.600000	-2.880000
	-11.400000	-2.880000
	-11.400000	-2.880000
	-11.400000	-2.800000
	-11.200000	-2.800000
	-11.200000	-2.720000
	-11.000000	-2.720000
	-11.000000	-2.720000
	-11.000000	-2.640000
	-10.800000	-2.640000
	-10.800000	-2.560000
	-10.800000	-2.560000
	-10.600000	-2.480000
	-10.600000	-2.480000
	-10.400000	-2.480000
	-10.400000	-2.400000
	-10.400000	-2.400000
	-10.200000	-2.320000
	-10.200000	-2.320000
	-10.000000	-2.240000
	-10.000000	-2.240000
	-9.800000	-2.160000
	-9.800000	-2.160000
	-9.800000	-2.080000
	-9.600000	-2.080000
	-9.600000	-2.080000
	-9.400000	-2.000000
	-9.400000	-2.000000
	-9.400000	-2.000000
	-9.200000	-1.920000
	-9.200000	-1.920000
	-9.000000	-1.840000
	-9.000000	-1.840000
	-9.000000	-1.760000
	-8.800000	-1.760000
	-8.800000	-1.760000
	-8.600000	-1.680000
	-8.600000	-1.680000
	-8.600000	-1.600000
	-8.400000	-1.600000
	-8.400000	-1.600000
	-8.200000	-1.520000
	-8.200000	-1.440000
	-8.200000	-1.440000
	-8.000000	-1.440000
	-8.000000	-1.360000
	-7.800000	-1.360000
	-7.800000	-1.280000
	-7.800000	-1.280000
	-7.600000	-1.280000
	-7.600000	-1.200000
	-7.400000	-1.200000
	-7.400000	-1.200000
	-7.200000	-1.120000
	-7.200000	-1.120000
	-7.200000	-1.040000
	-7.000000	-1.040000
	-7.000000	-1.040000
	-7.000000	-0.960000
	-6.800000	-0.960000
	-6.800000	-0.880000
	-6.600000	-0.880000
	-6.600000	-0.880000
	-6.400000	-0.800000
	-6.400000	-0.720000
	-6.200000	-0.720000
	-6.200000	-0.720000
	-6.200000	-0.640000
	-6.000000	-0.640000
	-6.000000	-0.560000
	-5.800000	-0.560000
	-5.800000	-0.560000
	-5.600000	-0.480000
	-5.600000	-0.480000
	-5.600000	-0.400000
	-5.400000	-0.400000
	-5.400000	-0.400000
	-5.200000	-0.320000
	-5.200000	-0.320000
	-5.200000	-0.240000
	-5.000000	-0.240000
	-5.000000	-0.240000
	-4.800000	-0.160000
	-4.800000	-0.160000
	-4.800000	-0.160000
	-4.600000	-0.080000
	-4.600000	0.000000
	-4.400000	0.000000
	-4.400000	0.000000
	-4.400000	0.080000
	-4.200000	0.080000
	-4.200000	0.080000
	-4.000000	0.160000
	-4.000000	0.160000
	-3.800000	0.160000
	-3.800000	0.240000
	-3.800000	0.240000
	-3.600000	0.320000
	-3.600000	0.320000
	-3.400000	0.320000
	-3.400000	0.320000
	-3.200000	0.400000
	-3.200000	0.400000
	-3.200000	0.400000
	-3.000000	0.480000
	-3.000000	0.480000
	-3.000000	0.560000
	-2.800000	0.560000
	-2.800000	0.560000
	-2.600000	0.640000
	-2.600000	0.640000
	-2.600000	0.720000
	-2.400000	0.720000
	-2.400000	0.800000
	-2.200000	0.800000
	-2.200000	0.800000
	-2.200000	0.880000
	-2.000000	0.880000
	-2.000000	0.880000
	-1.800000	0.960000
	-1.800000	0.960000
	-1.600000	0.960000
	-1.600000	1.040000
	-1.600000	1.040000
	-1.400000	1.120000
	-1.400000	1.120000
	-1.200000	1.120000
	-1.200000	1.120000
	-1.000000	1.200000
	-1.000000	1.200000
	-1.000000	1.200000
	-0.800000	1.280000
	-0.800000	1.280000
	-0.600000	1.280000
	-0.600000	1.360000
	-0.600000	1.360000
	-0.400000	1.440000
	-0.400000	1.440000
	-0.200000	1.520000
	-0.200000	1.520000
	-0.200000	1.520000
	0.000000	1.520000
	0.000000	1.600000
	0.200000	1.600000
	0.200000	1.600000
	0.200000	1.680000
	0.400000	1.680000
	0.400000	1.680000
	0.600000	1.760000
	0.600000	1.760000
	0.800000	1.840000
	0.800000	1.840000
	0.800000	1.840000
	1.000000	1.920000
	1.000000	1.920000
	1.200000	1.920000
	1.200000	1.920000
	1.400000	2.000000
	1.400000	2.000000
	1.400000	2.000000
	1.600000	2.080000
	1.600000	2.080000
	1.800000	2.160000
	1.800000	2.160000
	2.000000	2.160000
	2.000000	2.240000
	2.000000	2.240000
	2.200000	2.240000
	2.200000	2.320000
	2.400000	2.320000
	2.400000	2.320000
	2.400000	2.400000
	2.600000	2.400000
	2.600000	2.400000
	2.800000	2.480000
	2.800000	2.480000
	2.800000	2.480000
	3.000000	2.560000
	3.000000	2.560000
	3.200000	2.560000
	3.200000	2.560000
	3.200000	2.640000
	3.400000	2.640000
	3.400000	2.640000
	3.600000	2.720000
	3.600000	2.720000
	3.600000	2.720000
	3.800000	2.800000
	3.800000	2.800000
	4.000000	2.800000
	4.000000	2.880000
	4.000000	2.880000
	4.200000	2.960000
	4.200000	2.960000
	4.400000	2.960000
	4.400000	2.960000
	4.600000	3.040000
	4.600000	3.040000
	4.600000	3.040000
	4.800000	3.120000
	4.800000	3.120000
	4.800000	3.120000
	5.000000	3.200000
	5.000000	3.200000
	5.200000	3.200000
	5.200000	3.280000
	5.200000	3.280000
	5.400000	3.280000
	5.400000	3.280000
	5.600000	3.360000
	5.600000	3.360000
	5.600000	3.360000
	5.800000	3.440000
	5.800000	3.440000
	6.000000	3.440000
	6.000000	3.520000
	6.200000	3.520000
	6.200000	3.600000
	6.200000	3.600000
	6.400000	3.600000
	6.400000	3.600000
	6.600000	3.600000
	6.600000	3.680000
	6.800000	3.680000
	6.800000	3.680000
	6.800000	3.760000
	7.000000	3.760000
	7.000000	3.760000
	7.000000	3.760000
	7.200000	3.840000
	7.200000	3.840000
	7.400000	3.840000
	7.400000	3.920000
	7.600000	3.920000
	7.600000	3.920000
	7.600000	4.000000
	7.800000	4.000000
	7.800000	4.000000
	8.000000	4.000000
	8.000000	4.080000
	8.200000	4.080000
	8.200000	4.080000
	8.400000	4.160000
	8.400000	4.160000
	8.400000	4.160000
	8.600000	4.160000
	8.600000	4.240000
	8.800000	4.240000
	8.800000	4.320000
	8.800000	4.320000
	9.000000	4.320000
	9.000000	4.400000
	9.000000	4.400000
	9.200000	4.400000
	9.200000	4.400000
	9.400000	4.480000
	9.400000	4.480000
	9.400000	4.480000
	9.600000	4.480000
	9.600000	4.560000
	9.800000	4.560000
	9.800000	4.560000
	10.000000	4.560000
	10.000000	4.640000
	10.000000	4.640000
	10.200000	4.640000
	10.200000	4.720000
	10.400000	4.720000
	10.400000	4.720000
	10.400000	4.720000
	10.600000	4.800000
	10.600000	4.800000
	10.800000	4.800000
	10.800000	4.880000
	10.800000	4.880000
	11.000000	4.880000
	11.000000	4.880000
	11.000000	4.960000
	11.200000	4.960000
	11.200000	4.960000
	11.400000	5.040000
	11.400000	5.040000
	11.600000	5.040000
	11.600000	5.120000
	11.600000	5.120000
	11.800000	5.120000
	11.800000	5.120000
	12.000000	5.200000
	12.000000	5.200000
	12.000000	5.200000
	12.200000	5.200000
	12.200000	5.200000
	12.400000	5.280000
	12.400000	5.280000
	12.600000	5.280000
	12.600000	5.280000
	12.600000	5.360000
	12.800000	5.360000
	12.800000	5.360000
	12.800000	5.440000
	13.000000	5.440000
	13.000000	5.440000
	13.200000	5.440000
	13.200000	5.520000
	13.200000	5.520000
	13.400000	5.520000
	13.400000	5.520000
	13.600000	5.600000
	13.600000	5.600000
	13.600000	5.600000
	13.800000	5.600000
	13.800000	5.680000
	14.000000	5.680000
	14.000000	5.680000
	14.200000	5.760000
	14.200000	5.760000
	14.200000	5.760000
	14.400000	5.840000
	14.400000	5.840000
	14.400000	5.840000
	14.600000	5.840000
	14.600000	5.840000
	14.600000	5.920000
	14.800000	5.920000
	14.800000	5.920000
	15.000000	5.920000
	15.000000	5.920000
	15.000000	5.920000
	15.200000	6.000000
	15.200000	6.000000
	15.400000	6.000000
	15.400000	6.000000
	15.600000	6.080000
	15.600000	6.080000
	15.600000	6.080000
	15.800000	6.080000
	15.800000	6.160000
	16.000000	6.160000
	16.000000	6.160000
	16.200000	6.160000
	16.200000	6.240000
	16.200000	6.240000
	16.400000	6.240000
	16.400000	6.240000
	16.400000	6.320000
	16.600000	6.320000
	16.600000	6.320000
	16.800000	6.320000
	16.800000	6.400000
	16.800000	6.400000
	17.000000	6.400000
	17.000000	6.480000
	17.200000	6.480000
	17.200000	6.480000
	17.200000	6.480000
	17.400000	6.560000
	17.400000	6.560000
	17.600000	6.560000
	17.600000	6.560000
	17.800000	6.560000
	17.800000	6.640000
	17.800000	6.640000
	18.000000	6.640000
	18.000000	6.640000
	18.200000	6.720000
	18.200000	6.720000
	18.200000	6.720000
	18.400000	6.720000
	18.400000	6.720000
	18.400000	6.720000
	18.600000	6.800000
	18.600000	6.800000
	18.800000	6.800000
	18.800000	6.800000
	18.800000	6.880000
	19.000000	6.880000
	19.000000	6.880000
	19.200000	6.880000
	19.200000	6.960000
	19.400000	6.960000
	19.400000	6.960000
	19.400000	6.960000
	19.600000	7.040000
	19.600000	7.040000
	19.800000	7.040000
	19.800000	7.040000
	19.800000	7.040000
	20.000000	7.120000
	20.000000	7.120000
	20.200000	7.200000
	20.200000	7.120000
	20.000000	7.120000
	20.000000	7.040000
	19.800000	7.040000
	19.800000	6.960000
	19.800000	6.880000
	19.600000	6.880000
	19.600000	6.800000
	19.400000	6.800000
	19.400000	6.720000
	19.400000	6.720000
	19.200000	6.720000
	19.200000	6.640000
	19.000000	6.640000
	19.000000	6.560000
	19.000000	6.560000
	18.800000	6.480000
	18.800000	6.480000
	18.600000	6.400000
	18.600000	6.320000

