LabVIEW Measurement	
Writer_Version	2
Reader_Version	2
Separator	Tab
Decimal_Separator	.
Multi_Headings	Yes
X_Columns	One
Time_Pref	Relative
Operator	e014
Description	Hysteresis Loop Data
Date	2015/09/03
Time	16:02:43.2024312019348144531
***End_of_Header***	
	
Channels	2		
Samples	200	200	
Date	2015/09/03	2015/09/03	
Time	16:02:43.2024312019348144531	16:02:43.2024312019348144531	
Y_Unit_Label	V	C	
X_Dimension	Time	Time	
X0	0.0000000000000000E+0	0.0000000000000000E+0	
Delta_X	5.000000E-5	5.000000E-5	
***End_of_Header***			
X_Value	Applied Voltage	Charge	Comment
0.000000	-11.343874	-1.707180E-6	Source: DAQ NI USB-6211 | Sample Length: 1.00E+3 ms | Sample Rate: 20.0 kHz | Sense Capacitance: 4.73E+3 nF
5.000000E-5	-12.090172	-2.060209E-6
0.000100	-12.649364	-1.758501E-6
0.000150	-12.904508	-1.679186E-6
0.000200	-13.463700	-2.049323E-6
0.000250	-14.209999	-2.092868E-6
0.000300	-14.707531	-2.029105E-6
0.000350	-14.971180	-2.001112E-6
0.000400	-15.579275	-2.372804E-6
0.000450	-16.312817	-2.399242E-6
0.000500	-16.772077	-2.316817E-6
0.000550	-17.048484	-2.330813E-6
0.000600	-17.705482	-2.694729E-6
0.000650	-18.413509	-2.693174E-6
0.000700	-18.817489	-2.598307E-6
0.000750	-19.119410	-2.669846E-6
0.000800	-19.818932	-3.004213E-6
0.000850	-20.512076	-2.991771E-6
0.000900	-20.890541	-2.901570E-6
0.000950	-21.213725	-2.997992E-6
0.001000	-21.919626	-3.315252E-6
0.001050	-22.587256	-3.276372E-6
0.001100	-22.946585	-3.195502E-6
0.001150	-23.325050	-3.365018E-6
0.001200	-24.050088	-3.635622E-6
0.001250	-24.662436	-3.564083E-6
0.001300	-25.013261	-3.475437E-6
0.001350	-25.412988	-3.686943E-6
0.001400	-26.140152	-3.990206E-6
0.001450	-26.023211	-3.582745E-6
0.001500	-25.117445	-3.602963E-6
0.001550	-24.968611	-3.658950E-6
0.001600	-24.283971	-3.296589E-6
0.001650	-23.663118	-3.571859E-6
0.001700	-23.433487	-3.313697E-6
0.001750	-22.538353	-3.043093E-6
0.001800	-22.242810	-3.584301E-6
0.001850	-21.800559	-2.952891E-6
0.001900	-20.950075	-3.081973E-6
0.001950	-20.811872	-3.041537E-6
0.002000	-20.033679	-2.643408E-6
0.002050	-19.546778	-2.997992E-6
0.002100	-19.263992	-2.657404E-6
0.002150	-18.326335	-2.542320E-6
0.002200	-18.143481	-2.666735E-6
0.002250	-17.531133	-2.335479E-6
0.002300	-16.844368	-2.579645E-6
0.002350	-16.618990	-2.355696E-6
0.002400	-15.766382	-2.047768E-6
0.002450	-15.447451	-2.560982E-6
0.002500	-15.015831	-1.974674E-6
0.002550	-14.163222	-2.083537E-6
0.002600	-14.027145	-2.050878E-6
0.002650	-13.244701	-1.660524E-6
0.002700	-12.757800	-2.016664E-6
0.002750	-12.477141	-1.669855E-6
0.002800	-11.537359	-1.567212E-6
0.002850	-11.363010	-1.685407E-6
0.002900	-10.731527	-1.355706E-6
0.002950	-10.068151	-1.596761E-6
0.003000	-9.825764	-1.347930E-6
0.003050	-8.962525	-1.067995E-6
0.003100	-8.673361	-1.640307E-6
0.003150	-8.214101	-9.762381E-7
0.003200	-7.387008	-1.108430E-6
0.003250	-7.244552	-1.052443E-6
0.003300	-6.442974	-6.854166E-7
0.003350	-5.960326	-1.027560E-6
0.003400	-5.671162	-6.714198E-7
0.003450	-4.731380	-5.843289E-7
0.003500	-4.563410	-7.071893E-7
0.003550	-3.942559	-3.619359E-7
0.003600	-3.264301	-5.998808E-7
0.003650	-3.043175	-3.572703E-7
0.003700	-2.167180	-8.044545E-8
0.003750	-1.865260	-6.854166E-7
0.003800	-1.433641	5.090317E-9
0.003850	-0.585286	-1.084390E-7
0.003900	-0.444957	-6.644869E-8
0.003950	0.341738	3.067983E-7
0.004000	0.758473	-3.689997E-8
0.004050	1.090161	3.425678E-7
0.004100	2.017184	3.550094E-7
0.004150	2.174523	2.663632E-7
0.004200	2.820888	6.240583E-7
0.004250	3.480010	3.954445E-7
0.004300	3.707514	6.085063E-7
0.004350	4.570751	8.946624E-7
0.004400	4.900312	3.705613E-7
0.004450	5.306416	9.879741E-7
0.004500	6.176032	9.024383E-7
0.004550	6.341876	8.791104E-7
0.004600	7.049900	1.258578E-6
0.004650	7.632479	9.817533E-7
0.004700	7.879118	1.255468E-6
0.004750	8.774248	1.487192E-6
0.004800	9.054906	1.014412E-6
0.004850	9.499282	1.610053E-6
0.004900	10.356140	1.499634E-6
0.004950	10.502848	1.494968E-6
0.005000	11.240639	1.882212E-6
0.005050	11.804082	1.586725E-6
0.005100	12.037964	1.872881E-6
0.005150	12.960734	2.093719E-6
0.005200	13.228635	1.588280E-6
0.005250	13.675137	2.210358E-6
0.005300	14.531995	2.118602E-6
0.005350	14.678702	2.103050E-6
0.005400	15.397357	2.471631E-6
0.005450	15.994819	2.199472E-6
0.005500	16.241458	2.462300E-6
0.005550	17.098316	2.736015E-6
0.005600	17.434255	2.330108E-6
0.005650	17.808466	2.776450E-6
0.005700	18.720605	2.804443E-6
0.005750	18.882196	2.717352E-6
0.005800	19.490288	3.062606E-6
0.005850	20.223826	2.851099E-6
0.005900	20.381165	2.984846E-6
0.005950	21.204003	3.361204E-6
0.006000	21.680272	3.003509E-6
0.006050	21.922658	3.309882E-6
0.006100	22.858185	3.546272E-6
0.006150	23.136717	3.053275E-6
0.006200	23.553451	3.631808E-6
0.006250	24.457085	3.613146E-6
0.006300	24.620802	3.554048E-6
0.006350	25.182118	3.899302E-6
0.006400	26.017714	3.863532E-6
0.006450	25.524436	3.578931E-6
0.006500	24.888703	3.639584E-6
0.006550	24.537881	3.720454E-6
0.006600	24.163670	3.546272E-6
0.006650	23.432258	3.277223E-6
0.006700	22.809282	3.347207E-6
0.006750	22.462712	3.426522E-6
0.006800	22.079997	3.229012E-6
0.006850	21.344332	2.966184E-6
0.006900	20.740492	3.054830E-6
0.006950	20.391796	3.143476E-6
0.007000	19.983566	2.902421E-6
0.007050	19.245776	2.644258E-6
0.007100	18.669576	2.770229E-6
0.007150	18.333637	2.861986E-6
0.007200	17.897766	2.575830E-6
0.007250	17.147218	2.257014E-6
0.007300	16.545504	2.484073E-6
0.007350	16.262720	2.569609E-6
0.007400	15.809840	2.264790E-6
0.007450	15.061418	1.865105E-6
0.007500	14.461830	2.194806E-6
0.007550	14.191803	2.275677E-6
0.007600	13.709156	1.938199E-6
0.007650	12.958608	1.750020E-6
0.007700	12.390913	1.917981E-6
0.007750	12.133643	1.984855E-6
0.007800	11.616976	1.628715E-6
0.007850	10.868554	1.465419E-6
0.007900	10.305112	1.616273E-6
0.007950	10.043589	1.680036E-6
0.008000	9.503535	1.303679E-6
0.008050	8.759365	1.260133E-6
0.008100	8.229941	1.330117E-6
0.008150	7.976923	1.379884E-6
0.008200	7.392218	9.848637E-7
0.008250	6.656553	9.459838E-7
0.008300	6.148392	1.039296E-6
0.008350	5.891121	1.071955E-6
0.008400	5.283028	6.738245E-7
0.008450	4.557994	6.504966E-7
0.008500	4.090230	7.562499E-7
0.008550	3.820202	7.515843E-7
0.008600	3.163206	3.550094E-7
0.008650	2.455182	3.518990E-7
0.008700	2.034194	4.623179E-7
0.008750	1.740778	4.187724E-7
0.008800	1.049763	4.241502E-8
0.008850	0.358747	6.263256E-8
0.008900	-0.019716	1.497235E-7
0.008950	-0.328016	1.372820E-7
0.009000	-0.987138	-2.546274E-7
0.009050	-1.686659	-2.421858E-7
0.009100	-2.088511	-1.302117E-7
0.009150	-2.405315	-2.033059E-7
0.009200	-3.100583	-5.625561E-7
0.009250	-3.778841	-5.330074E-7
0.009300	-4.148801	-4.365853E-7
0.009350	-4.499624	-5.547801E-7
0.009400	-5.222533	-8.767056E-7
0.009450	-5.837006	-8.144978E-7
0.009500	-6.200586	-7.211861E-7
0.009550	-6.604565	-9.124751E-7
0.009600	-7.348736	-1.192410E-6
0.009650	-7.958957	-1.088212E-6
0.009700	-8.263004	-9.964557E-7
0.009750	-8.715885	-1.271725E-6
0.009800	-9.466435	-1.587430E-6
0.009850	-10.059646	-1.361927E-6
0.009900	-10.316917	-1.293498E-6
0.009950	-10.817638	-1.525222E-6

