LabVIEW Measurement	
Writer_Version	2
Reader_Version	2
Separator	Tab
Decimal_Separator	.
Multi_Headings	Yes
X_Columns	One
Time_Pref	Relative
Operator	e014
Description	Hysteresis Loop Data
Date	2015/09/03
Time	16:04:00.1318311691284179687
***End_of_Header***	
	
Channels	2		
Samples	200	200	
Date	2015/09/03	2015/09/03	
Time	16:04:00.1318311691284179687	16:04:00.1318311691284179687	
Y_Unit_Label	V	C	
X_Dimension	Time	Time	
X0	0.0000000000000000E+0	0.0000000000000000E+0	
Delta_X	5.000000E-5	5.000000E-5	
***End_of_Header***			
X_Value	Applied Voltage	Charge	Comment
0.000000	-12.902382	-2.858024E-6	Source: DAQ NI USB-6211 | Sample Length: 1.00E+3 ms | Sample Rate: 20.0 kHz | Sense Capacitance: 4.73E+3 nF
5.000000E-5	-12.209239	-2.648073E-6
0.000100	-11.582009	-2.393021E-6
0.000150	-11.324738	-2.808258E-6
0.000200	-10.552926	-2.114641E-6
0.000250	-10.136190	-2.144190E-6
0.000300	-9.734337	-2.232836E-6
0.000350	-8.913622	-1.758501E-6
0.000400	-8.671235	-1.879807E-6
0.000450	-8.084403	-1.788050E-6
0.000500	-7.359367	-1.431910E-6
0.000550	-7.180766	-1.601427E-6
0.000600	-6.411081	-1.257729E-6
0.000650	-5.881656	-1.173748E-6
0.000700	-5.571230	-1.340154E-6
0.000750	-4.756895	-8.378257E-7
0.000800	-4.448595	-9.218063E-7
0.000850	-3.944685	-8.984784E-7
0.000900	-3.155864	-5.221210E-7
0.000950	-2.975137	-6.791958E-7
0.001000	-2.269238	-4.241437E-7
0.001050	-1.669649	-2.079715E-7
0.001100	-1.408126	-5.003483E-7
0.001150	-0.595917	7.196374E-8
0.001200	-0.234463	1.979925E-9
0.001250	0.214166	2.841825E-8
0.001300	0.975346	4.063308E-7
0.001350	1.149694	2.383697E-7
0.001400	1.887486	5.462985E-7
0.001450	2.446677	6.784901E-7
0.001500	2.733714	4.918666E-7
0.001550	3.556554	9.957501E-7
0.001600	3.877610	9.226559E-7
0.001650	4.364510	9.382079E-7
0.001700	5.157582	1.313010E-6
0.001750	5.340436	1.160601E-6
0.001800	6.044208	1.415653E-6
0.001850	6.643796	1.616273E-6
0.001900	6.911697	1.401656E-6
0.001950	7.734537	1.921092E-6
0.002000	8.059845	1.849553E-6
0.002050	8.553123	1.861994E-6
0.002100	9.335565	2.249238E-6
0.002150	9.518418	2.084387E-6
0.002200	10.245578	2.365878E-6
0.002250	10.817526	2.526063E-6
0.002300	11.093931	2.356547E-6
0.002350	11.925275	2.851099E-6
0.002400	12.216564	2.743791E-6
0.002450	12.748114	2.790447E-6
0.002500	13.496536	3.183911E-6
0.002550	13.677263	3.012840E-6
0.002600	14.438442	3.320769E-6
0.002650	14.957234	3.415636E-6
0.002700	15.271912	3.303662E-6
0.002750	16.111760	3.781107E-6
0.002800	16.354146	3.620922E-6
0.002850	16.949482	3.745337E-6
0.002900	17.642622	4.096812E-6
0.002950	17.897766	3.768665E-6
0.003000	18.658945	4.325426E-6
0.003050	19.052292	4.294322E-6
0.003100	19.486036	4.274104E-6
0.003150	20.285486	4.666014E-6
0.003200	20.461961	4.502718E-6
0.003250	21.193372	4.796651E-6
0.003300	21.739805	4.924177E-6
0.003350	22.048104	4.791985E-6
0.003400	22.883699	5.270986E-6
0.003450	23.119707	5.104580E-6
0.003500	23.744809	5.278762E-6
0.003550	24.395425	5.547811E-6
0.003600	24.646317	5.333194E-6
0.003650	25.496795	5.830857E-6
0.003700	25.686027	5.488713E-6
0.003750	25.562708	5.773314E-6
0.003800	24.831296	5.331638E-6
0.003850	24.540007	5.560252E-6
0.003900	23.778828	5.124797E-6
0.003950	23.483287	5.277206E-6
0.004000	22.739118	4.896183E-6
0.004050	22.460586	5.042372E-6
0.004100	21.690903	4.683121E-6
0.004150	21.403866	4.793540E-6
0.004200	20.666075	4.463838E-6
0.004250	20.334389	4.564926E-6
0.004300	19.628491	4.284991E-6
0.004350	19.284047	4.317650E-6
0.004400	18.610042	4.053266E-6
0.004450	18.216696	4.070374E-6
0.004500	17.600098	3.893081E-6
0.004550	17.136587	3.801324E-6
0.004600	16.573145	3.656691E-6
0.004650	16.075615	3.549383E-6
0.004700	15.565327	3.513613E-6
0.004750	14.995506	3.281889E-6
0.004800	14.551130	3.295886E-6
0.004850	13.930280	3.048609E-6
0.004900	13.519924	3.117038E-6
0.004950	12.867181	2.823106E-6
0.005000	12.503601	2.897755E-6
0.005050	11.799829	2.588271E-6
0.005100	11.468142	2.692469E-6
0.005150	10.745235	2.196362E-6
0.005200	10.441188	2.451414E-6
0.005250	9.726785	1.872881E-6
0.005300	9.407856	2.236797E-6
0.005350	8.659433	1.802897E-6
0.005400	8.363892	1.950641E-6
0.005450	7.621848	1.568062E-6
0.005500	7.332685	1.715806E-6
0.005550	6.567253	1.367442E-6
0.005600	6.263206	1.462309E-6
0.005650	5.548803	1.152825E-6
0.005700	5.193728	1.227474E-6
0.005750	4.513344	9.724222E-7
0.005800	4.137006	9.770878E-7
0.005850	3.486389	7.422532E-7
0.005900	3.054770	7.173700E-7
0.005950	2.472191	5.774024E-7
0.006000	1.983165	4.576523E-7
0.006050	1.443110	3.347918E-7
0.006100	0.926443	2.088210E-7
0.006150	0.414029	1.699411E-7
0.006200	-0.143036	-5.796054E-9
0.006250	-0.598043	-9.599741E-8
0.006300	-1.138099	-2.515170E-7
0.006350	-1.616494	-2.515170E-7
0.006400	-2.222461	-5.065691E-7
0.006450	-2.628566	-4.583580E-7
0.006500	-3.289815	-7.382932E-7
0.006550	-3.672531	-6.620886E-7
0.006600	-4.350790	-9.622414E-7
0.006650	-4.690982	-8.891472E-7
0.006700	-5.416018	-1.189300E-6
0.006750	-5.726443	-1.086657E-6
0.006800	-6.455731	-1.652748E-6
0.006850	-6.778914	-1.344819E-6
0.006900	-7.497571	-1.940459E-6
0.006950	-7.807996	-1.548550E-6
0.007000	-8.530906	-1.994891E-6
0.007050	-8.849836	-1.811378E-6
0.007100	-9.589755	-2.231281E-6
0.007150	-9.891676	-2.069540E-6
0.007200	-10.648605	-2.441232E-6
0.007250	-10.931390	-2.329258E-6
0.007300	-11.671309	-2.663625E-6
0.007350	-11.985988	-2.546985E-6
0.007400	-12.719529	-2.862690E-6
0.007450	-13.036333	-2.800482E-6
0.007500	-13.737981	-3.074197E-6
0.007550	-14.122824	-3.036872E-6
0.007600	-14.777696	-3.279482E-6
0.007650	-15.160413	-3.279482E-6
0.007700	-15.804653	-3.512762E-6
0.007750	-16.240526	-3.537645E-6
0.007800	-16.825232	-3.672947E-6
0.007850	-17.320639	-3.805138E-6
0.007900	-17.847938	-3.909336E-6
0.007950	-18.381616	-4.053969E-6
0.008000	-18.866391	-4.049304E-6
0.008050	-19.470234	-4.310576E-6
0.008100	-19.891223	-4.279473E-6
0.008150	-20.522707	-4.540745E-6
0.008200	-20.926687	-4.470762E-6
0.008250	-21.585811	-4.761583E-6
0.008300	-21.934510	-4.679158E-6
0.008350	-22.653168	-4.999528E-6
0.008400	-22.997614	-4.907771E-6
0.008450	-23.669496	-5.358778E-6
0.008500	-24.011816	-5.156602E-6
0.008550	-24.741106	-5.576505E-6
0.008600	-25.032397	-5.414765E-6
0.008650	-25.793580	-5.780235E-6
0.008700	-26.080619	-5.590502E-6
0.008750	-25.974308	-5.702476E-6
0.008800	-25.238639	-5.400768E-6
0.008850	-24.692203	-5.304346E-6
0.008900	-24.390281	-5.448979E-6
0.008950	-23.569565	-4.938875E-6
0.009000	-23.271895	-5.049294E-6
0.009050	-22.740343	-5.035297E-6
0.009100	-21.964277	-4.640278E-6
0.009150	-21.779296	-4.786466E-6
0.009200	-21.084026	-4.542300E-6
0.009250	-20.471678	-4.324573E-6
0.009300	-20.216533	-4.735145E-6
0.009350	-19.408574	-4.033752E-6
0.009400	-19.049245	-4.088184E-6
0.009450	-18.592111	-4.134839E-6
0.009500	-17.782026	-3.716492E-6
0.009550	-17.584288	-3.859570E-6
0.009600	-16.944300	-3.679167E-6
0.009650	-16.251157	-3.374349E-6
0.009700	-16.017274	-3.520538E-6
0.009750	-15.268849	-3.153512E-6
0.009800	-14.803210	-3.122408E-6
0.009850	-14.460891	-3.257710E-6
0.009900	-13.638049	-2.770934E-6
0.009950	-13.295730	-2.782597E-6

