LabVIEW Measurement	
Writer_Version	2
Reader_Version	2
Separator	Tab
Decimal_Separator	.
Multi_Headings	Yes
X_Columns	One
Time_Pref	Relative
Operator	e014
Description	Hysteresis Loop Data
Date	2015/09/03
Time	17:09:02.7750496864318847656
***End_of_Header***	
	
Channels	2		
Samples	200	200	
Date	2015/09/03	2015/09/03	
Time	17:09:02.7750496864318847656	17:09:02.7750496864318847656	
Y_Unit_Label	V	C	
X_Dimension	Time	Time	
X0	0.0000000000000000E+0	0.0000000000000000E+0	
Delta_X	5.000000E-5	5.000000E-5	
***End_of_Header***			
X_Value	Applied Voltage	Charge	Comment
0.000000	25.960306	5.459362E-5	Source: DAQ NI USB-6211 | Sample Length: 1.00E+3 ms | Sample Rate: 20.0 kHz | Sense Capacitance: 4.73E+3 nF
5.000000E-5	25.539319	5.365273E-5
0.000100	25.114080	5.269473E-5
0.000150	24.684588	5.168540E-5
0.000200	24.252970	5.072740E-5
0.000250	23.808595	4.970097E-5
0.000300	23.368472	4.872586E-5
0.000350	22.926223	4.768233E-5
0.000400	22.477596	4.669011E-5
0.000450	22.028968	4.568079E-5
0.000500	21.576088	4.465436E-5
0.000550	21.125334	4.364504E-5
0.000600	20.672454	4.261861E-5
0.000650	20.215322	4.155796E-5
0.000700	19.758189	4.054864E-5
0.000750	19.303183	3.952221E-5
0.000800	18.846050	3.849578E-5
0.000850	18.382539	3.745224E-5
0.000900	17.923281	3.639160E-5
0.000950	17.464022	3.534806E-5
0.001000	17.000511	3.433874E-5
0.001050	16.536999	3.326099E-5
0.001100	16.073488	3.220034E-5
0.001150	15.612103	3.115681E-5
0.001200	15.146466	3.013038E-5
0.001250	14.682955	2.908684E-5
0.001300	14.223696	2.802620E-5
0.001350	13.755932	2.698266E-5
0.001400	13.294547	2.593912E-5
0.001450	12.833162	2.492980E-5
0.001500	12.367525	2.383494E-5
0.001550	11.904013	2.282562E-5
0.001600	11.438376	2.178208E-5
0.001650	10.974864	2.073855E-5
0.001700	10.509227	1.969501E-5
0.001750	10.043589	1.863436E-5
0.001800	9.582204	1.757372E-5
0.001850	9.114440	1.653018E-5
0.001900	8.650929	1.548665E-5
0.001950	8.183165	1.444311E-5
0.002000	7.715401	1.339957E-5
0.002050	7.251889	1.233893E-5
0.002100	6.779873	1.129539E-5
0.002150	6.316361	1.025186E-5
0.002200	5.850724	9.157000E-6
0.002250	5.376581	8.096356E-6
0.002300	4.910943	7.069927E-6
0.002350	4.441053	6.026390E-6
0.002400	3.973289	4.931532E-6
0.002450	3.501272	3.887996E-6
0.002500	3.033508	2.827352E-6
0.002550	2.565744	1.766709E-6
0.002600	2.093727	6.889582E-7
0.002650	1.628089	-3.374710E-7
0.002700	1.158199	-1.398115E-6
0.002750	0.684056	-2.441651E-6
0.002800	0.212039	-3.502294E-6
0.002850	-0.255725	-4.580045E-6
0.002900	-0.723489	-5.623581E-6
0.002950	-1.197632	-6.701332E-6
0.003000	-1.667523	-7.779082E-6
0.003050	-2.143792	-8.822619E-6
0.003100	-2.615809	-9.900369E-6
0.003150	-3.089952	-1.094391E-5
0.003200	-3.561969	-1.202166E-5
0.003250	-4.033986	-1.308230E-5
0.003300	-4.508129	-1.417716E-5
0.003350	-4.984398	-1.522069E-5
0.003400	-5.456415	-1.629844E-5
0.003450	-5.934811	-1.737619E-5
0.003500	-6.408954	-1.843684E-5
0.003550	-6.887350	-1.951459E-5
0.003600	-7.361494	-2.057523E-5
0.003650	-7.837763	-2.167009E-5
0.003700	-8.314033	-2.274784E-5
0.003750	-8.792429	-2.380848E-5
0.003800	-9.270825	-2.490334E-5
0.003850	-9.749221	-2.598109E-5
0.003900	-10.227616	-2.707595E-5
0.003950	-10.710265	-2.815370E-5
0.004000	-11.192913	-2.923145E-5
0.004050	-11.673436	-3.034341E-5
0.004100	-12.160337	-3.143827E-5
0.004150	-12.645111	-3.251602E-5
0.004200	-13.129886	-3.361088E-5
0.004250	-13.614661	-3.473995E-5
0.004300	-14.107941	-3.581770E-5
0.004350	-14.592716	-3.689545E-5
0.004400	-15.088122	-3.802452E-5
0.004450	-15.575023	-3.911938E-5
0.004500	-16.061924	-4.023134E-5
0.004550	-16.550952	-4.134331E-5
0.004600	-17.044232	-4.242106E-5
0.004650	-17.533259	-4.351591E-5
0.004700	-18.022287	-4.464498E-5
0.004750	-18.513441	-4.573984E-5
0.004800	-19.013100	-4.676627E-5
0.004850	-19.553156	-4.753609E-5
0.004900	-20.182514	-4.787823E-5
0.004950	-20.862901	-4.808352E-5
0.005000	-21.390200	-4.926391E-5
0.005050	-21.828199	-5.061538E-5
0.005100	-22.240684	-5.191552E-5
0.005150	-22.687188	-5.311302E-5
0.005200	-23.038012	-5.475530E-5
0.005250	-23.248507	-5.595280E-5
0.005300	-22.799877	-5.468688E-5
0.005350	-22.247062	-5.343806E-5
0.005400	-21.694248	-5.220634E-5
0.005450	-21.143560	-5.095752E-5
0.005500	-20.594998	-4.970870E-5
0.005550	-20.061320	-4.851120E-5
0.005600	-19.542525	-4.734791E-5
0.005650	-19.002469	-4.613331E-5
0.005700	-18.487926	-4.497002E-5
0.005750	-17.958501	-4.375541E-5
0.005800	-17.439706	-4.260923E-5
0.005850	-16.914533	-4.141173E-5
0.005900	-16.387234	-4.021423E-5
0.005950	-15.855682	-3.903384E-5
0.006000	-15.339014	-3.783634E-5
0.006050	-14.807463	-3.665595E-5
0.006100	-14.284416	-3.547556E-5
0.006150	-13.761369	-3.429516E-5
0.006200	-13.238323	-3.311477E-5
0.006250	-12.704645	-3.191727E-5
0.006300	-12.187977	-3.075398E-5
0.006350	-11.660678	-2.953938E-5
0.006400	-11.137632	-2.837609E-5
0.006450	-10.614586	-2.719570E-5
0.006500	-10.085161	-2.599820E-5
0.006550	-9.559988	-2.478359E-5
0.006600	-9.032690	-2.363741E-5
0.006650	-8.511770	-2.242280E-5
0.006700	-7.982345	-2.124241E-5
0.006750	-7.459299	-2.006202E-5
0.006800	-6.936253	-1.888162E-5
0.006850	-6.408954	-1.766702E-5
0.006900	-5.875277	-1.648662E-5
0.006950	-5.356484	-1.530623E-5
0.007000	-4.822807	-1.412584E-5
0.007050	-4.304014	-1.292833E-5
0.007100	-3.774589	-1.174794E-5
0.007150	-3.257922	-1.055044E-5
0.007200	-2.722119	-9.370047E-6
0.007250	-2.203326	-8.189654E-6
0.007300	-1.673901	-6.992153E-6
0.007350	-1.155108	-5.828867E-6
0.007400	-0.625684	-4.631366E-6
0.007450	-0.104765	-3.450973E-6
0.007500	0.358747	-2.407437E-6
0.007550	0.898802	-1.192829E-6
0.007600	1.436731	3.888633E-8
0.007650	1.961903	1.185066E-6
0.007700	2.482822	2.399674E-6
0.007750	3.003741	3.545853E-6
0.007800	3.537418	4.760461E-6
0.007850	4.058337	5.940855E-6
0.007900	4.583508	7.104141E-6
0.007950	5.110806	8.284535E-6
0.008000	5.635977	9.464929E-6
0.008050	6.156896	1.066243E-5
0.008100	6.684194	1.185993E-5
0.008150	7.215744	1.302322E-5
0.008200	7.736663	1.423783E-5
0.008250	8.263960	1.541822E-5
0.008300	8.782753	1.659861E-5
0.008350	9.310050	1.777901E-5
0.008400	9.833095	1.894229E-5
0.008450	10.360393	2.012269E-5
0.008500	10.885564	2.132019E-5
0.008550	11.412861	2.250058E-5
0.008600	11.942285	2.368098E-5
0.008650	12.461077	2.486137E-5
0.008700	12.986248	2.604177E-5
0.008750	13.505041	2.720505E-5
0.008800	14.034464	2.840255E-5
0.008850	14.559635	2.956584E-5
0.008900	15.086932	3.078045E-5
0.008950	15.605725	3.194374E-5
0.009000	16.135148	3.312413E-5
0.009050	16.653940	3.427031E-5
0.009100	17.172733	3.546781E-5
0.009150	17.700030	3.666531E-5
0.009200	18.229453	3.782860E-5
0.009250	18.750371	3.895767E-5
0.009300	19.271290	4.025782E-5
0.009350	19.794334	4.138689E-5
0.009400	20.308874	4.253307E-5
0.009450	20.853181	4.364504E-5
0.009500	21.374099	4.473989E-5
0.009550	21.878008	4.593740E-5
0.009600	22.407431	4.706647E-5
0.009650	22.962369	4.792183E-5
0.009700	23.470530	4.882851E-5
0.009750	23.974438	4.983783E-5
0.009800	24.495357	5.074451E-5
0.009850	25.048168	5.146301E-5
0.009900	25.573339	5.209598E-5
0.009950	26.023029	5.287435E-5

