LabVIEW Measurement	
Writer_Version	2
Reader_Version	2
Separator	Tab
Decimal_Separator	.
Multi_Headings	Yes
X_Columns	One
Time_Pref	Relative
Operator	e014
Description	Hysteresis Loop Data
Date	2015/09/03
Time	15:57:18.8068766593933105469
***End_of_Header***	
	
Channels	2		
Samples	200	200	
Date	2015/09/03	2015/09/03	
Time	15:57:18.8068766593933105469	15:57:18.8068766593933105469	
Y_Unit_Label	V	C	
X_Dimension	Time	Time	
X0	0.0000000000000000E+0	0.0000000000000000E+0	
Delta_X	5.000000E-5	5.000000E-5	
***End_of_Header***			
X_Value	Applied Voltage	Charge	Comment
0.000000	-25.315183	-2.270161E-6	Source: DAQ NI USB-6211 | Sample Length: 1.00E+3 ms | Sample Rate: 20.0 kHz | Sense Capacitance: 4.73E+3 nF
5.000000E-5	-25.640493	-2.416349E-6
0.000100	-25.950920	-2.599862E-6
0.000150	-26.112512	-2.281047E-6
0.000200	-25.193989	-2.592086E-6
0.000250	-24.870805	-2.330813E-6
0.000300	-24.468951	-2.187735E-6
0.000350	-23.556807	-2.351031E-6
0.000400	-23.510031	-2.001112E-6
0.000450	-22.546858	-2.379024E-6
0.000500	-22.300218	-2.030661E-6
0.000550	-21.798432	-1.980894E-6
0.000600	-20.971337	-2.091313E-6
0.000650	-20.856522	-1.725842E-6
0.000700	-19.903981	-2.156631E-6
0.000750	-19.736010	-1.716511E-6
0.000800	-19.127915	-1.772498E-6
0.000850	-18.422014	-1.844037E-6
0.000900	-18.300820	-1.478566E-6
0.000950	-17.248348	-2.055544E-6
0.001000	-17.176057	-1.405472E-6
0.001050	-16.436137	-1.593651E-6
0.001100	-15.876944	-1.550105E-6
0.001150	-15.645188	-1.256173E-6
0.001200	-14.630987	-1.489453E-6
0.001250	-14.605473	-1.165972E-6
0.001300	-13.729476	-1.458349E-6
0.001350	-13.361643	-1.212628E-6
0.001400	-12.981052	-1.038446E-6
0.001450	-12.060405	-1.234401E-6
0.001500	-11.983862	-8.875920E-7
0.001550	-11.033448	-1.274836E-6
0.001600	-10.835711	-8.767056E-7
0.001650	-10.276519	-8.767056E-7
0.001700	-9.530221	-9.902349E-7
0.001750	-9.413280	-6.263191E-7
0.001800	-8.360809	-1.148865E-6
0.001850	-8.284266	-5.454490E-7
0.001900	-7.557104	-7.445140E-7
0.001950	-7.006418	-6.823062E-7
0.002000	-6.755526	-3.883742E-7
0.002050	-5.739200	-6.263191E-7
0.002100	-5.703055	-3.090592E-7
0.002150	-4.824933	-5.983256E-7
0.002200	-4.459226	-3.463839E-7
0.002250	-4.104150	-1.597604E-7
0.002300	-3.164369	-3.774878E-7
0.002350	-3.094204	-4.934154E-8
0.002400	-2.148044	-3.930398E-7
0.002450	-1.897153	-4.467595E-8
0.002500	-1.433641	4.241502E-8
0.002550	-0.587412	-1.364325E-7
0.002600	-0.455588	2.445905E-7
0.002650	0.475688	-1.753124E-7
0.002700	0.609639	2.632528E-7
0.002750	1.241121	1.466131E-7
0.002800	1.925758	1.435027E-7
0.002850	2.042699	5.043082E-7
0.002900	3.097294	-2.290321E-8
0.002950	3.197226	5.323017E-7
0.003000	3.909503	3.550094E-7
0.003050	4.506965	4.234380E-7
0.003100	4.664304	7.671363E-7
0.003150	5.708268	5.641178E-8
0.003200	5.782685	8.075714E-7
0.003250	6.543865	6.007303E-7
0.003300	7.107308	6.784901E-7
0.003350	7.281656	1.006636E-6
0.003400	8.329873	5.525193E-7
0.003450	8.376649	1.079731E-6
0.003500	9.159090	8.635584E-7
0.003550	9.692766	9.273215E-7
0.003600	9.909639	1.246137E-6
0.003650	10.953602	7.189252E-7
0.003700	10.998253	1.342559E-6
0.003750	11.763684	1.126387E-6
0.003800	12.316496	1.182374E-6
0.003850	12.509980	1.510520E-6
0.003900	13.562448	8.744448E-7
0.003950	13.647496	1.564952E-6
0.004000	14.332132	1.400101E-6
0.004050	14.982749	1.414098E-6
0.004100	15.101816	1.771793E-6
0.004150	16.150031	1.341004E-6
0.004200	16.288234	1.753131E-6
0.004250	16.864434	1.717361E-6
0.004300	17.649001	1.656708E-6
0.004350	17.765942	2.026845E-6
0.004400	18.682333	1.630270E-6
0.004450	18.958739	1.952196E-6
0.004500	19.369095	2.107715E-6
0.004550	20.308874	1.911761E-6
0.004600	20.362029	2.221245E-6
0.004650	21.235896	1.958417E-6
0.004700	21.667514	2.138819E-6
0.004750	21.897144	2.434307E-6
0.004800	22.934728	1.745355E-6
0.004850	23.030407	2.459190E-6
0.004900	23.695907	2.337884E-6
0.004950	24.414561	2.317667E-6
0.005000	24.544259	2.667586E-6
0.005050	25.413874	2.359657E-6
0.005100	25.885890	2.477852E-6
0.005150	25.313943	2.647369E-6
0.005200	25.050294	2.406313E-6
0.005250	24.680336	2.344105E-6
0.005300	23.808595	2.494959E-6
0.005350	23.315317	2.449859E-6
0.005400	23.145222	2.020624E-6
0.005450	22.352150	2.225910E-6
0.005500	21.650505	2.364323E-6
0.005550	21.505923	1.955306E-6
0.005600	20.910588	1.972413E-6
0.005650	20.104759	2.151261E-6
0.005700	19.809218	1.961527E-6
0.005750	19.454143	1.827780E-6
0.005800	18.580276	1.983300E-6
0.005850	18.114638	1.936644E-6
0.005900	17.946669	1.501189E-6
0.005950	17.104694	1.737579E-6
0.006000	16.439194	1.847998E-6
0.006050	16.352020	1.393880E-6
0.006100	15.667384	1.502744E-6
0.006150	14.908332	1.704920E-6
0.006200	14.672324	1.367442E-6
0.006250	14.215191	1.314565E-6
0.006300	13.330693	1.510520E-6
0.006350	12.973491	1.386104E-6
0.006400	12.707716	9.226559E-7
0.006450	11.831722	1.306789E-6
0.006500	11.285289	1.334783E-6
0.006550	11.159844	8.853312E-7
0.006600	10.366771	1.039296E-6
0.006650	9.652368	1.185484E-6
0.006700	9.533301	7.718019E-7
0.006750	8.912451	8.308993E-7
0.006800	8.100243	1.012857E-6
0.006850	7.851478	7.298116E-7
0.006900	7.438995	6.676038E-7
0.006950	6.550243	8.620033E-7
0.007000	6.154770	7.375876E-7
0.007050	5.912383	1.512787E-7
0.007100	5.042768	6.551622E-7
0.007150	4.487829	6.784901E-7
0.007200	4.351753	2.243729E-7
0.007250	3.558680	3.923341E-7
0.007300	2.850655	5.245257E-7
0.007350	2.740092	1.092884E-7
0.007400	2.093727	1.792722E-7
0.007450	1.313412	3.581198E-7
0.007500	1.094413	2.375267E-8
0.007550	0.620270	1.753188E-8
0.007600	-0.255725	2.041554E-7
0.007650	-0.574655	2.375267E-8
0.007700	-0.846809	-3.308320E-7
0.007750	-1.716425	2.064227E-8
0.007800	-2.239471	1.979925E-9
0.007850	-2.403189	-4.459164E-7
0.007900	-3.219650	-2.281890E-7
0.007950	-3.885152	-1.193253E-7
0.008000	-4.010598	-5.610009E-7
0.008050	-4.712244	-4.599132E-7
0.008100	-5.430901	-2.919521E-7
0.008150	-5.620133	-6.667542E-7
0.008200	-6.192082	-6.418711E-7
0.008250	-7.023427	-4.832411E-7
0.008300	-7.282824	-7.382932E-7
0.008350	-7.684676	-7.973907E-7
0.008400	-8.564925	-6.138776E-7
0.008450	-8.947642	-7.647315E-7
0.008500	-9.215543	-1.296608E-6
0.008550	-10.100044	-7.927251E-7
0.008600	-10.620964	-8.020562E-7
0.008650	-10.776177	-1.259284E-6
0.008700	-11.594766	-1.046222E-6
0.008750	-12.251763	-9.404686E-7
0.008800	-12.349569	-1.383699E-6
0.008850	-13.083110	-1.268615E-6
0.008900	-13.808146	-1.095988E-6
0.008950	-13.967611	-1.503449E-6
0.009000	-14.562949	-1.447462E-6
0.009050	-15.392169	-1.251508E-6
0.009100	-15.619673	-1.560992E-6
0.009150	-16.055546	-1.621644E-6
0.009200	-16.954931	-1.431910E-6
0.009250	-17.292998	-1.581209E-6
0.009300	-17.580036	-1.817599E-6
0.009350	-18.468791	-1.615423E-6
0.009400	-18.953566	-1.632531E-6
0.009450	-19.119410	-2.103755E-6
0.009500	-19.978398	-1.847148E-6
0.009550	-20.603503	-1.764722E-6
0.009600	-20.690678	-2.203287E-6
0.009650	-21.451860	-2.064875E-6
0.009700	-22.200286	-1.890693E-6
0.009750	-22.321480	-2.324593E-6
0.009800	-22.929576	-2.270161E-6
0.009850	-23.763050	-2.066430E-6
0.009900	-24.005437	-2.344810E-6
0.009950	-24.331811	-2.517437E-6

