LabVIEW Measurement	
Writer_Version	2
Reader_Version	2
Separator	Tab
Decimal_Separator	.
Multi_Headings	Yes
X_Columns	One
Time_Pref	Relative
Operator	e014
Description	Hysteresis Loop Data
Date	2015/08/18
Time	16:41:06.5290694236755371094
***End_of_Header***	
	
Channels	2		
Samples	200	200	
Date	2015/08/18	2015/08/18	
Time	16:41:06.5290694236755371094	16:41:06.5290694236755371094	
Y_Unit_Label	V	V	
X_Dimension	Time	Time	
X0	0.0000000000000000E+0	0.0000000000000000E+0	
Delta_X	1.000000E-5	1.000000E-5	
***End_of_Header***			
X_Value	Applied Voltage	Sense Voltage	Comment
0.000000	6.595007	0.260225
1.000000E-5	5.943995	0.308887
2.000000E-5	5.336823	0.343081
3.000000E-5	4.913775	0.381879
4.000000E-5	4.315370	0.423965
5.000000E-5	3.837523	0.466050
6.000000E-5	3.285149	0.508136
7.000000E-5	2.759079	0.554825
8.000000E-5	2.173826	0.598225
9.000000E-5	1.656523	0.641626
1.000000E-4	1.014279	0.688315
0.000110	0.575887	0.729085
0.000120	-0.053206	0.769856
0.000130	-0.542013	0.768541
0.000140	-1.396877	0.825093
0.000150	-1.727863	0.865206
0.000160	-2.201327	0.903346
0.000170	-2.659447	0.927677
0.000180	-3.246892	0.936883
0.000190	-3.759811	0.935568
0.000200	-4.375752	0.934910
0.000210	-4.882096	0.944117
0.000220	-5.478309	0.959241
0.000230	-6.008764	0.971078
0.000240	-6.569906	0.976339
0.000250	-7.100361	0.976339
0.000260	-7.615472	0.965160
0.000270	-8.266485	0.935568
0.000280	-8.779404	0.892167
0.000290	-9.309859	0.834957
0.000300	-9.833738	0.763280
0.000310	-10.337890	0.683054
0.000320	-10.879305	0.597568
0.000330	-11.387840	0.495642
0.000340	-11.977479	0.387797
0.000350	-12.503550	0.270747
0.000360	-13.060309	0.145147
0.000370	-13.621452	0.018233
0.000380	-14.178211	-0.112627
0.000390	-14.728394	-0.244145
0.000400	-15.195282	-0.373690
0.000410	-15.802457	-0.499289
0.000420	-16.332912	-0.619628
0.000430	-16.894056	-0.737336
0.000440	-17.468351	-0.852414
0.000450	-18.000998	-0.964861
0.000460	-18.522686	-1.064157
0.000470	-19.164932	-1.158192
0.000480	-19.673469	-1.250912
0.000490	-20.271875	-1.369278
0.000500	-20.784796	-1.475808
0.000510	-21.280180	-1.533018
0.000520	-21.795293	-1.567870
0.000530	-22.380548	-1.531703
0.000540	-23.145545	-1.590886
0.000550	-23.623394	-1.627711
0.000560	-24.083707	-1.662563
0.000570	-24.644851	-1.696757
0.000580	-25.162156	-1.728322
0.000590	-25.747412	-1.761859
0.000600	-26.214301	-1.776326
0.000610	-26.777637	-1.780929
0.000620	-27.351933	-1.792765
0.000630	-27.928421	-1.872334
0.000640	-24.368663	-2.006482
0.000650	-25.309018	-1.798684
0.000660	-25.265178	-1.790135
0.000670	-24.813633	-1.774353
0.000680	-24.182346	-1.757913
0.000690	-23.601474	-1.744761
0.000700	-23.101705	-1.728979
0.000710	-22.439731	-1.717143
0.000720	-21.966266	-1.695442
0.000730	-21.385395	-1.680318
0.000740	-20.859323	-1.661905
0.000750	-20.260916	-1.650726
0.000760	-19.818138	-1.630999
0.000770	-19.191236	-1.611271
0.000780	-18.632284	-1.589570
0.000790	-18.077717	-1.572473
0.000800	-17.573565	-1.554061
0.000810	-16.992694	-1.534991
0.000820	-16.549917	-1.511975
0.000830	-15.925207	-1.490275
0.000840	-15.410095	-1.477123
0.000850	-14.870872	-1.470547
0.000860	-14.294385	-1.480411
0.000870	-13.829688	-1.488959
0.000880	-13.231282	-1.502769
0.000890	-12.659179	-1.517236
0.000900	-12.104613	-1.534333
0.000910	-11.576349	-1.555376
0.000920	-11.004247	-1.579707
0.000930	-10.414609	-1.606668
0.000940	-9.868810	-1.629026
0.000950	-9.333971	-1.663220
0.000960	-8.832011	-1.690839
0.000970	-8.257717	-1.721088
0.000980	-7.731646	-1.757913
0.000990	-7.102553	-1.788820
0.001000	-6.585250	-1.826960
0.001010	-5.938621	-1.872334
0.001020	-5.506805	-1.911131
0.001030	-4.910591	-1.951244
0.001040	-4.395480	-1.997933
0.001050	-3.847490	-2.043964
0.001060	-3.334571	-2.092626
0.001070	-2.784389	-2.143260
0.001080	-2.212287	-2.193237
0.001090	-1.644569	-2.243214
0.001100	-1.144802	-2.294505
0.001110	-0.550781	-2.348428
0.001120	-0.066357	-2.401692
0.001130	0.492592	-2.413529
0.001140	1.323345	-2.474685
0.001150	1.755161	-2.526634
0.001160	2.193553	-2.572666
0.001170	2.728391	-2.616724
0.001180	3.274189	-2.648288
0.001190	3.806835	-2.661440
0.001200	4.378937	-2.662755
0.001210	4.872128	-2.650919
0.001220	5.393814	-2.641055
0.001230	5.998794	-2.633164
0.001240	6.483217	-2.618697
0.001250	7.105734	-2.596996
0.001260	7.741402	-2.571350
0.001270	8.274047	-2.520716
0.001280	8.743126	-2.461533
0.001290	9.258237	-2.388541
0.001300	9.760195	-2.303712
0.001310	10.393671	-2.207046
0.001320	10.871518	-2.107750
0.001330	11.397587	-1.996618
0.001340	11.967496	-1.874964
0.001350	12.543981	-1.750680
0.001360	13.111698	-1.626395
0.001370	13.618040	-1.494878
0.001380	14.185757	-1.372566
0.001390	14.733747	-1.244994
0.001400	15.292696	-1.119395
0.001410	15.825341	-0.997083
0.001420	16.463201	-0.882663
0.001430	16.980502	-0.773503
0.001440	17.548219	-0.667632
0.001450	18.118128	-0.572281
0.001460	18.655157	-0.474958
0.001470	19.157115	-0.383553
0.001480	19.729216	-0.298725
0.001490	20.288165	-0.218499
0.001500	20.879993	-0.144191
0.001510	21.484973	-0.067254
0.001520	22.173247	-0.006098
0.001530	22.618214	0.062949
0.001540	23.078525	0.105692
0.001550	23.530068	0.130680
0.001560	24.095592	0.138571
0.001570	24.601934	0.108322
0.001580	25.237601	0.109638
0.001590	25.829429	0.164875
0.001600	26.482632	0.197754
0.001610	26.890336	0.213537
0.001620	27.401062	0.229976
0.001630	27.927131	0.276007
0.001640	24.753179	0.326642
0.001650	25.268289	0.324011
0.001660	25.285824	0.256280
0.001670	24.862777	0.219455
0.001680	24.332324	0.199727
0.001690	23.696656	0.183945
0.001700	22.951391	0.168163
0.001710	22.539304	0.150408
0.001720	22.057073	0.137914
0.001730	21.471821	0.120159
0.001740	20.906296	0.104377
0.001750	20.364883	0.089252
0.001760	19.777439	0.078731
0.001770	19.209722	0.066894
0.001780	18.648581	0.057031
0.001790	18.124704	0.053085
0.001800	17.596442	0.049140
0.001810	17.050645	0.047167
0.001820	16.526767	0.050455
0.001830	15.967818	0.049797
0.001840	15.389142	0.051770
0.001850	14.841153	0.056373
0.001860	14.312891	0.055058
0.001870	13.745174	0.059003
0.001880	13.223488	0.071498
0.001890	12.758793	0.076101
0.001900	12.175732	0.080704
0.001910	11.597056	0.086622
0.001920	11.044682	0.093198
0.001930	10.490117	0.099116
0.001940	9.935552	0.106350
0.001950	9.313036	0.118844
0.001960	8.782582	0.120159
0.001970	8.291583	0.164217
0.001980	7.675643	0.191836
0.001990	7.420280	0.211564

