LabVIEW Measurement	
Writer_Version	2
Reader_Version	2
Separator	Tab
Decimal_Separator	.
Multi_Headings	Yes
X_Columns	One
Time_Pref	Relative
Operator	e014
Description	Hysteresis Loop Data
Date	2015/08/17
Time	12:00:34.3964529037475585937
***End_of_Header***	
	
Channels	2		
Samples	200	200	
Date	2015/08/17	2015/08/17	
Time	12:00:34.3964529037475585937	12:00:34.3964529037475585937	
Y_Unit_Label	V	V	
X_Dimension	Time	Time	
X0	0.0000000000000000E+0	0.0000000000000000E+0	
Delta_X	1.000000E-5	1.000000E-5	
***End_of_Header***			
X_Value	Applied Voltage	Sense Voltage	Comment
0.000000	16.896327	-0.852703
1.000000E-5	17.421498	-0.822454
2.000000E-5	17.940290	-0.797247
3.000000E-5	18.459082	-0.764477
4.000000E-5	18.982127	-0.731707
5.000000E-5	19.503045	-0.701458
6.000000E-5	20.038847	-0.673730
7.000000E-5	20.553387	-0.635919
8.000000E-5	21.070053	-0.603149
9.000000E-5	21.595224	-0.572900
1.000000E-4	22.122521	-0.540130
0.000110	22.634934	-0.507360
0.000120	23.181367	-0.469549
0.000130	23.689528	-0.436779
0.000140	24.218951	-0.401488
0.000150	24.733491	-0.361156
0.000160	25.248030	-0.328386
0.000170	25.779580	-0.295617
0.000180	26.141033	-0.257805
0.000190	25.333078	-0.225036
0.000200	24.854684	-0.192266
0.000210	24.329513	-0.162017
0.000220	23.812847	-0.134288
0.000230	23.300434	-0.101519
0.000240	22.762506	-0.076311
0.000250	22.247966	-0.053624
0.000260	21.710038	-0.025896
0.000270	21.197625	-0.003209
0.000280	20.672454	0.016957
0.000290	20.147283	0.039644
0.000300	19.634870	0.057289
0.000310	19.103320	0.079976
0.000320	18.586654	0.092579
0.000330	18.055105	0.112746
0.000340	17.549070	0.127870
0.000350	17.015394	0.142995
0.000360	16.502980	0.155598
0.000370	15.960800	0.165681
0.000380	15.452638	0.178285
0.000390	14.931720	0.188368
0.000400	14.406549	0.198451
0.000410	13.883504	0.208534
0.000420	13.368964	0.216096
0.000430	12.839541	0.218617
0.000440	12.318622	0.226179
0.000450	11.801956	0.226179
0.000460	11.274658	0.231221
0.000470	10.760118	0.238783
0.000480	10.234947	0.236262
0.000490	9.720407	0.241304
0.000500	9.184605	0.243825
0.000510	8.665812	0.243825
0.000520	8.136388	0.238783
0.000530	7.628227	0.238783
0.000540	7.098803	0.233742
0.000550	6.580010	0.228700
0.000560	6.048460	0.226179
0.000570	5.519036	0.218617
0.000580	5.008748	0.211055
0.000590	4.477198	0.206013
0.000600	3.966910	0.193410
0.000610	3.435360	0.188368
0.000620	2.914441	0.175764
0.000630	2.391396	0.168202
0.000640	1.870476	0.158119
0.000650	1.349557	0.142995
0.000660	0.824385	0.127870
0.000670	0.305592	0.115266
0.000680	-0.164298	0.102662
0.000690	-0.702227	0.082496
0.000700	-1.218894	0.072413
0.000710	-1.739814	0.052247
0.000720	-2.260733	0.039644
0.000730	-2.777400	0.021998
0.000740	-3.300446	0.004353
0.000750	-3.823492	-0.013292
0.000760	-4.352916	-0.033458
0.000770	-4.869583	-0.051104
0.000780	-5.396882	-0.073790
0.000790	-5.917801	-0.093956
0.000800	-6.438721	-0.114122
0.000810	-6.963893	-0.139330
0.000820	-7.486940	-0.159496
0.000830	-8.012112	-0.182183
0.000840	-8.528779	-0.204870
0.000850	-9.053952	-0.227556
0.000860	-9.564241	-0.255285
0.000870	-10.106423	-0.280492
0.000880	-10.618838	-0.303179
0.000890	-11.141884	-0.330907
0.000900	-11.660678	-0.356115
0.000910	-12.181599	-0.383843
0.000920	-12.700393	-0.411571
0.000930	-13.225565	-0.439300
0.000940	-13.744360	-0.467028
0.000950	-14.263154	-0.497277
0.000960	-14.790453	-0.525005
0.000970	-15.302869	-0.555254
0.000980	-15.832294	-0.582983
0.000990	-16.351088	-0.613232
0.001000	-16.865630	-0.646002
0.001010	-17.384425	-0.676251
0.001020	-17.913850	-0.711541
0.001030	-18.430519	-0.744311
0.001040	-18.957818	-0.774560
0.001050	-19.474487	-0.807330
0.001060	-19.982650	-0.840100
0.001070	-20.512076	-0.870349
0.001080	-21.028745	-0.908160
0.001090	-21.556045	-0.943451
0.001100	-22.072713	-0.976220
0.001110	-22.597887	-1.011511
0.001120	-23.114556	-1.046801
0.001130	-23.639729	-1.084613
0.001140	-24.160651	-1.117383
0.001150	-24.685825	-1.157715
0.001160	-25.204620	-1.190485
0.001170	-25.717037	-1.230817
0.001180	-26.095502	-1.286273
0.001190	-25.262028	-1.319043
0.001200	-24.800640	-1.351813
0.001210	-24.281845	-1.379541
0.001220	-23.754545	-1.407269
0.001230	-23.231497	-1.434998
0.001240	-22.714828	-1.457684
0.001250	-22.193907	-1.485413
0.001260	-21.672986	-1.508100
0.001270	-21.152065	-1.530786
0.001280	-20.635396	-1.550952
0.001290	-20.105970	-1.568598
0.001300	-19.593554	-1.588764
0.001310	-19.076886	-1.606409
0.001320	-18.558091	-1.619013
0.001330	-18.032918	-1.639179
0.001340	-17.505619	-1.654303
0.001350	-16.993203	-1.666907
0.001360	-16.468030	-1.676990
0.001370	-15.961993	-1.689594
0.001380	-15.430441	-1.699677
0.001390	-14.911647	-1.704718
0.001400	-14.388600	-1.714801
0.001410	-13.869806	-1.724884
0.001420	-13.346759	-1.729926
0.001430	-12.821586	-1.734968
0.001440	-12.309171	-1.742530
0.001450	-11.788251	-1.742530
0.001460	-11.265204	-1.747571
0.001470	-10.742158	-1.750092
0.001480	-10.225490	-1.747571
0.001490	-9.700318	-1.750092
0.001500	-9.173019	-1.747571
0.001510	-8.656352	-1.745051
0.001520	-8.135432	-1.745051
0.001530	-7.612386	-1.729926
0.001540	-7.093592	-1.724884
0.001550	-6.566293	-1.724884
0.001560	-6.036869	-1.714801
0.001570	-5.524454	-1.709760
0.001580	-5.003534	-1.702198
0.001590	-4.478362	-1.692115
0.001600	-3.955316	-1.684552
0.001610	-3.438649	-1.676990
0.001620	-2.904972	-1.664386
0.001630	-2.392558	-1.651783
0.001640	-1.865260	-1.644220
0.001650	-1.352845	-1.629096
0.001660	-0.819168	-1.619013
0.001670	-0.304627	-1.606409
0.001680	0.167389	-1.591284
0.001690	0.707444	-1.576160
0.001700	1.213480	-1.563556
0.001710	1.742904	-1.545911
0.001720	2.263824	-1.528266
0.001730	2.786869	-1.510620
0.001740	3.303536	-1.492975
0.001750	3.837212	-1.475330
0.001760	4.356005	-1.455164
0.001770	4.874798	-1.434998
0.001780	5.402095	-1.417352
0.001790	5.920888	-1.397186
0.001800	6.439681	-1.371979
0.001810	6.981862	-1.351813
0.001820	7.496402	-1.329126
0.001830	8.017321	-1.311481
0.001840	8.540366	-1.283752
0.001850	9.065537	-1.261066
0.001860	9.580078	-1.238379
0.001870	10.118006	-1.215692
0.001880	10.621915	-1.190485
0.001890	11.159844	-1.162756
0.001900	11.665879	-1.140069
0.001910	12.197429	-1.114862
0.001920	12.714095	-1.087134
0.001930	13.243518	-1.056885
0.001940	13.762311	-1.031677
0.001950	14.285356	-1.001428
0.001960	14.799896	-0.971179
0.001970	15.329319	-0.940930
0.001980	15.848111	-0.915722
0.001990	16.099003	-0.944711

