LabVIEW Measurement	
Writer_Version	2
Reader_Version	2
Separator	Tab
Decimal_Separator	.
Multi_Headings	Yes
X_Columns	One
Time_Pref	Relative
Operator	e014
Description	Hysteresis Loop Data
Date	2015/08/17
Time	11:59:15.1629209518432617187
***End_of_Header***	
	
Channels	2		
Samples	200	200	
Date	2015/08/17	2015/08/17	
Time	11:59:15.1629209518432617187	11:59:15.1629209518432617187	
Y_Unit_Label	V	V	
X_Dimension	Time	Time	
X0	0.0000000000000000E+0	0.0000000000000000E+0	
Delta_X	1.000000E-5	1.000000E-5	
***End_of_Header***			
X_Value	Applied Voltage	Sense Voltage	Comment
0.000000	-3.732065	6.470086
1.000000E-5	-4.238101	6.457482
2.000000E-5	-4.767526	6.437316
3.000000E-5	-5.296950	6.414629
4.000000E-5	-5.807239	6.396984
5.000000E-5	-6.338790	6.376818
6.000000E-5	-6.868214	6.349090
7.000000E-5	-7.378503	6.328924
8.000000E-5	-7.914306	6.308757
9.000000E-5	-8.428848	6.283550
1.000000E-4	-8.949768	6.258342
0.000110	-9.474940	6.235656
0.000120	-9.991608	6.210448
0.000130	-10.529538	6.185241
0.000140	-11.041953	6.160033
0.000150	-11.562873	6.134826
0.000160	-12.092298	6.104577
0.000170	-12.602587	6.079369
0.000180	-13.140517	6.051641
0.000190	-13.652933	6.018871
0.000200	-14.167475	5.996184
0.000210	-14.707531	5.965935
0.000220	-15.207189	5.935686
0.000230	-15.740867	5.905437
0.000240	-16.268166	5.872667
0.000250	-16.769951	5.844939
0.000260	-17.312134	5.809648
0.000270	-17.818171	5.779399
0.000280	-18.353975	5.749150
0.000290	-18.879149	5.718901
0.000300	-19.383060	5.683611
0.000310	-19.916738	5.653362
0.000320	-20.424902	5.615550
0.000330	-20.954328	5.580260
0.000340	-21.477375	5.550011
0.000350	-21.989791	5.514720
0.000360	-22.523470	5.481951
0.000370	-23.044391	5.441619
0.000380	-23.552555	5.408849
0.000390	-24.090486	5.376079
0.000400	-24.607155	5.338268
0.000410	-25.125950	5.297936
0.000420	-25.653250	5.262645
0.000430	-26.157162	5.202147
0.000440	-25.391726	5.174419
0.000450	-24.972863	5.139128
0.000460	-24.437058	5.108879
0.000470	-23.911884	5.081151
0.000480	-23.380332	5.053423
0.000490	-22.878547	5.028215
0.000500	-22.344868	5.005528
0.000510	-21.826073	4.977800
0.000520	-21.315783	4.955113
0.000530	-20.775726	4.934947
0.000540	-20.265436	4.917302
0.000550	-19.738136	4.899657
0.000560	-19.223594	4.876970
0.000570	-18.715431	4.864366
0.000580	-18.175374	4.846721
0.000590	-17.662958	4.834117
0.000600	-17.133532	4.818993
0.000610	-16.612612	4.806389
0.000620	-16.112953	4.796306
0.000630	-15.568644	4.783702
0.000640	-15.058355	4.773619
0.000650	-14.537434	4.766057
0.000660	-14.010135	4.761015
0.000670	-13.493467	4.753453
0.000680	-12.968295	4.743370
0.000690	-12.434617	4.743370
0.000700	-11.937085	4.740849
0.000710	-11.397029	4.740849
0.000720	-10.878235	4.735808
0.000730	-10.359441	4.735808
0.000740	-9.830016	4.733287
0.000750	-9.309096	4.735808
0.000760	-8.779671	4.735808
0.000770	-8.267256	4.738328
0.000780	-7.744210	4.750932
0.000790	-7.212659	4.753453
0.000800	-6.704497	4.758494
0.000810	-6.160189	4.766057
0.000820	-5.647774	4.773619
0.000830	-5.135359	4.778660
0.000840	-4.593177	4.781181
0.000850	-4.089267	4.793785
0.000860	-3.553464	4.803868
0.000870	-3.030418	4.811430
0.000880	-2.518004	4.824034
0.000890	-1.982201	4.839159
0.000900	-1.471912	4.849242
0.000910	-0.942488	4.861845
0.000920	-0.423695	4.871928
0.000930	0.099351	4.892094
0.000940	0.590503	4.904698
0.000950	1.100792	4.919823
0.000960	1.623837	4.934947
0.000970	2.161766	4.952592
0.000980	2.672054	4.967717
0.000990	3.199352	4.985362
0.001000	3.733028	5.003008
0.001010	4.239064	5.020653
0.001020	4.779119	5.043340
0.001030	5.287281	5.058464
0.001040	5.816704	5.081151
0.001050	6.341876	5.106358
0.001060	6.877678	5.126524
0.001070	7.392218	5.149211
0.001080	7.911011	5.169377
0.001090	8.436182	5.194585
0.001100	8.963480	5.214751
0.001110	9.469515	5.242479
0.001120	10.015949	5.267687
0.001130	10.532615	5.292894
0.001140	11.053534	5.315581
0.001150	11.580831	5.343309
0.001160	12.084740	5.371037
0.001170	12.626921	5.398766
0.001180	13.141461	5.423973
0.001190	13.668758	5.451702
0.001200	14.191803	5.481951
0.001210	14.704217	5.512200
0.001220	15.233640	5.542449
0.001230	15.756685	5.570177
0.001240	16.271225	5.602947
0.001250	16.813405	5.630675
0.001260	17.321567	5.660924
0.001270	17.840359	5.688652
0.001280	18.382539	5.721422
0.001290	18.884322	5.754192
0.001300	19.417998	5.786962
0.001310	19.951673	5.814690
0.001320	20.459834	5.847460
0.001330	20.993510	5.885271
0.001340	21.505923	5.915520
0.001350	22.035347	5.948290
0.001360	22.554139	5.986101
0.001370	23.081436	6.021392
0.001380	23.615111	6.049120
0.001390	24.129651	6.086931
0.001400	24.648443	6.122222
0.001410	25.179992	6.160033
0.001420	25.683901	6.192803
0.001430	26.221829	6.225573
0.001440	25.433010	6.263384
0.001450	25.024780	6.298674
0.001460	24.486852	6.323882
0.001470	23.953176	6.354131
0.001480	23.445015	6.384380
0.001490	22.919845	6.412108
0.001500	22.379791	6.437316
0.001510	21.865251	6.462523
0.001520	21.337954	6.487731
0.001530	20.817035	6.510418
0.001540	20.302496	6.525542
0.001550	19.770946	6.550750
0.001560	19.250028	6.565874
0.001570	18.714226	6.586040
0.001580	18.203939	6.601165
0.001590	17.680894	6.618810
0.001600	17.149345	6.628893
0.001610	16.641183	6.644018
0.001620	16.107507	6.656621
0.001630	15.582337	6.666704
0.001640	15.074175	6.676787
0.001650	14.531995	6.686870
0.001660	14.025959	6.691912
0.001670	13.505041	6.701995
0.001680	12.971365	6.707036
0.001690	12.467456	6.707036
0.001700	11.925275	6.712078
0.001710	11.414987	6.717119
0.001720	10.887690	6.717119
0.001730	10.364645	6.717119
0.001740	9.847979	6.722161
0.001750	9.318555	6.719640
0.001760	8.787005	6.729723
0.001770	8.270339	6.727202
0.001780	7.730284	6.719640
0.001790	7.230627	6.717119
0.001800	6.707582	6.714599
0.001810	6.152644	6.709557
0.001820	5.652987	6.707036
0.001830	5.117185	6.696953
0.001840	4.606897	6.689391
0.001850	4.081725	6.679308
0.001860	3.556554	6.671746
0.001870	3.031382	6.661663
0.001880	2.506210	6.649059
0.001890	1.985291	6.641497
0.001900	1.462246	6.626372
0.001910	0.934948	6.616289
0.001920	0.422533	6.601165
0.001930	-0.102638	6.586040
0.001940	-0.595917	6.575957
0.001950	-1.097701	6.558312
0.001960	-1.648387	6.543187
0.001970	-2.145918	6.525542
0.001980	-2.679595	6.507897
0.001990	-2.935802	6.274727

