LabVIEW Measurement	
Writer_Version	2
Reader_Version	2
Separator	Tab
Decimal_Separator	.
Multi_Headings	Yes
X_Columns	One
Time_Pref	Relative
Operator	e014
Description	Hysteresis Loop Data
Date	2015/09/03
Time	11:31:02.3440752029418945312
***End_of_Header***	
	
Channels	2		
Samples	200	200	
Date	2015/09/03	2015/09/03	
Time	11:31:02.3440752029418945312	11:31:02.3440752029418945312	
Y_Unit_Label	V	C	
X_Dimension	Time	Time	
X0	0.0000000000000000E+0	0.0000000000000000E+0	
Delta_X	5.000000E-5	5.000000E-5	
***End_of_Header***			
X_Value	Applied Voltage	Charge	Comment
0.000000	23.270667	5.193556E-6	Source: DAQ NI USB-6211 | Sample Length: 1.00E+3 ms | Sample Rate: 20.0 kHz | Sense Capacitance: 666 nF
5.000000E-5	23.959555	5.391732E-6
0.000100	24.159418	5.389543E-6
0.000150	24.909965	5.575456E-6
0.000200	25.424505	5.688887E-6
0.000250	25.768949	5.731150E-6
0.000300	25.720046	5.689106E-6
0.000350	24.965246	5.488959E-6
0.000400	24.684588	5.460711E-6
0.000450	23.921283	5.248301E-6
0.000500	23.625742	5.229250E-6
0.000550	22.894330	5.026694E-6
0.000600	22.562644	4.997132E-6
0.000650	21.856746	4.803774E-6
0.000700	21.493166	4.748810E-6
0.000750	20.848928	4.578007E-6
0.000800	20.400301	4.499612E-6
0.000850	19.838985	4.357057E-6
0.000900	19.324445	4.243626E-6
0.000950	18.852429	4.143334E-6
0.001000	18.237958	3.999465E-6
0.001050	17.855242	3.925889E-6
0.001100	17.166354	3.748297E-6
0.001150	16.849551	3.707348E-6
0.001200	16.101129	3.510487E-6
0.001250	15.811966	3.480925E-6
0.001300	15.057166	3.268078E-6
0.001350	14.757372	3.253407E-6
0.001400	14.042969	3.026107E-6
0.001450	13.696399	3.021728E-6
0.001500	12.973491	2.826181E-6
0.001550	12.614164	2.773188E-6
0.001600	11.967799	2.601509E-6
0.001650	11.536181	2.526181E-6
0.001700	10.962107	2.378590E-6
0.001750	10.456072	2.274357E-6
0.001800	9.962794	2.163554E-6
0.001850	9.369584	2.030416E-6
0.001900	8.967732	1.949613E-6
0.001950	8.289475	1.779249E-6
0.002000	7.949283	1.730198E-6
0.002050	7.219996	1.539906E-6
0.002100	6.924455	1.501147E-6
0.002150	6.165401	1.296185E-6
0.002200	5.882617	1.279761E-6
0.002250	5.129942	1.066259E-6
0.002300	4.817390	1.048303E-6
0.002350	4.064715	8.510042E-7
0.002400	3.741533	8.080847E-7
0.002450	3.037761	6.226112E-7
0.002500	2.667802	5.689618E-7
0.002550	2.040572	3.979408E-7
0.002600	1.594070	3.197660E-7
0.002650	1.039132	1.831245E-7
0.002700	0.503329	7.451193E-8
0.002750	0.024934	-2.643639E-8
0.002800	-0.551267	-1.722749E-7
0.002850	-0.919100	-2.344643E-7
0.002900	-1.624999	-4.170909E-7
0.002950	-1.924793	-4.576016E-7
0.003000	-2.681721	-6.564325E-7
0.003050	-2.970885	-6.763594E-7
0.003100	-3.725686	-8.896426E-7
0.003150	-4.040364	-9.106644E-7
0.003200	-4.788788	-1.105116E-6
0.003250	-5.107718	-1.143217E-6
0.003300	-5.798734	-1.330223E-6
0.003350	-6.187829	-1.390442E-6
0.003400	-6.802302	-1.553580E-6
0.003450	-7.276445	-1.634382E-6
0.003500	-7.822880	-1.771899E-6
0.003550	-8.358683	-1.886643E-6
0.003600	-8.817943	-1.985620E-6
0.003650	-9.447300	-2.134305E-6
0.003700	-9.817259	-2.197151E-6
0.003750	-10.529538	-2.381529E-6
0.003800	-10.833585	-2.420069E-6
0.003850	-11.582009	-2.616272E-6
0.003900	-11.873299	-2.637951E-6
0.003950	-12.628102	-2.852110E-6
0.004000	-12.938528	-2.871161E-6
0.004050	-13.680573	-3.064079E-6
0.004100	-14.025019	-3.107655E-6
0.004150	-14.682016	-3.285683E-6
0.004200	-15.103005	-3.355098E-6
0.004250	-15.674955	-3.501155E-6
0.004300	-16.191623	-3.602323E-6
0.004350	-16.667893	-3.708964E-6
0.004400	-17.286619	-3.855897E-6
0.004450	-17.673589	-3.925313E-6
0.004500	-18.362480	-4.094800E-6
0.004550	-18.692042	-4.144946E-6
0.004600	-19.421332	-4.337864E-6
0.004650	-19.706243	-4.368740E-6
0.004700	-20.478057	-4.569322E-6
0.004750	-20.769347	-4.585964E-6
0.004800	-21.485880	-4.818517E-6
0.004850	-21.832452	-4.821145E-6
0.004900	-22.563868	-5.012311E-6
0.004950	-22.918944	-5.057420E-6
0.005000	-23.578069	-5.237638E-6
0.005050	-23.996933	-5.305520E-6
0.005100	-24.575262	-5.454205E-6
0.005150	-25.074921	-5.542891E-6
0.005200	-25.589464	-5.672525E-6
0.005250	-26.140152	-5.776320E-6
0.005300	-25.668134	-5.592598E-6
0.005350	-25.436377	-5.575080E-6
0.005400	-24.809145	-5.444570E-6
0.005450	-24.069224	-5.235667E-6
0.005500	-23.860855	-5.218587E-6
0.005550	-23.254886	-5.098150E-6
0.005600	-22.483072	-4.882458E-6
0.005650	-22.240684	-4.848079E-6
0.005700	-21.713384	-4.753481E-6
0.005750	-20.924561	-4.529030E-6
0.005800	-20.643901	-4.486330E-6
0.005850	-20.171883	-4.411878E-6
0.005900	-19.376681	-4.182172E-6
0.005950	-19.023731	-4.117793E-6
0.006000	-18.619751	-4.073341E-6
0.006050	-17.835181	-3.844729E-6
0.006100	-17.399308	-3.754949E-6
0.006150	-17.078251	-3.734803E-6
0.006200	-16.300059	-3.511447E-6
0.006250	-15.781265	-3.389259E-6
0.006300	-15.472965	-3.362106E-6
0.006350	-14.781948	-3.180136E-6
0.006400	-14.173853	-3.024663E-6
0.006450	-13.959106	-3.015904E-6
0.006500	-13.251080	-2.848825E-6
0.006550	-12.577073	-2.667951E-6
0.006600	-12.370831	-2.659410E-6
0.006650	-11.720212	-2.523645E-6
0.006700	-10.995176	-2.318902E-6
0.006750	-10.776177	-2.299413E-6
0.006800	-10.185092	-2.186202E-6
0.006850	-9.415406	-1.970073E-6
0.006900	-9.158136	-1.932628E-6
0.006950	-8.662730	-1.848322E-6
0.007000	-7.863278	-1.622995E-6
0.007050	-7.552852	-1.571974E-6
0.007100	-7.123359	-1.510003E-6
0.007150	-6.317528	-1.281392E-6
0.007200	-5.913549	-1.202560E-6
0.007250	-5.558473	-1.177816E-6
0.007300	-4.780283	-9.459196E-7
0.007350	-4.295509	-8.410298E-7
0.007400	-4.002093	-8.484750E-7
0.007450	-3.238786	-6.137320E-7
0.007500	-2.690226	-4.779665E-7
0.007550	-2.398936	-4.597914E-7
0.007600	-1.714299	-2.835151E-7
0.007650	-1.084943	-1.195015E-7
0.007700	-0.880828	-1.149030E-7
0.007750	-0.172803	3.816177E-8
0.007800	0.448048	2.196936E-7
0.007850	0.654289	2.240731E-7
0.007900	1.343179	3.745103E-7
0.007950	2.021437	5.691808E-7
0.008000	2.234057	5.755311E-7
0.008050	2.888927	7.119538E-7
0.008100	3.611835	9.145076E-7
0.008150	3.832960	9.313688E-7
0.008200	4.436801	1.053120E-6
0.008250	5.193728	1.258740E-6
0.008300	5.421231	1.283484E-6
0.008350	5.982548	1.391221E-6
0.008400	6.769242	1.613483E-6
0.008450	7.011629	1.638884E-6
0.008500	7.545305	1.732388E-6
0.008550	8.334125	1.957715E-6
0.008600	8.591395	1.992533E-6
0.008650	9.099557	2.073773E-6
0.008700	9.888377	2.298225E-6
0.008750	10.177540	2.343335E-6
0.008800	10.641051	2.417349E-6
0.008850	11.453259	2.644210E-6
0.008900	11.753053	2.687130E-6
0.008950	12.218691	2.761144E-6
0.009000	13.018141	2.989757E-6
0.009050	13.320062	3.034648E-6
0.009100	13.785699	3.101655E-6
0.009150	14.591528	3.331801E-6
0.009200	14.889196	3.381071E-6
0.009250	15.354833	3.449392E-6
0.009300	16.158536	3.677129E-6
0.009350	16.432816	3.715450E-6
0.009400	16.921841	3.796910E-6
0.009450	17.721292	4.023553E-6
0.009500	17.993445	4.050706E-6
0.009550	18.503733	4.142896E-6
0.009600	19.296804	4.367349E-6
0.009650	19.530686	4.383335E-6
0.009700	20.089876	4.491072E-6
0.009750	20.855307	4.703482E-6
0.009800	21.074305	4.717715E-6
0.009850	21.688776	4.848883E-6
0.009900	22.415936	5.048592E-6
0.009950	22.719982	5.093045E-6

