LabVIEW Measurement	
Writer_Version	2
Reader_Version	2
Separator	Tab
Decimal_Separator	.
Multi_Headings	Yes
X_Columns	One
Time_Pref	Relative
Operator	e014
Description	Hysteresis Loop Data
Date	2015/09/01
Time	16:21:04.1373610496520996094
***End_of_Header***	
	
Channels	2		
Samples	200	200	
Date	2015/09/01	2015/09/01	
Time	16:21:04.1373610496520996094	16:21:04.1373610496520996094	
Y_Unit_Label	V	C	
X_Dimension	Time	Time	
X0	0.0000000000000000E+0	0.0000000000000000E+0	
Delta_X	5.000000E-5	5.000000E-5	
***End_of_Header***			
X_Value	Applied Voltage	Charge	Comment
0.000000	19.094815	7.138307E-8	Source: DAQ NI USB-6211 | Sample Length: 1.00E+3 ms | Sample Rate: 20.0 kHz | Sense Capacitance: 680 nF
5.000000E-5	18.580276	6.624073E-8
0.000100	18.101881	6.825295E-8
0.000150	17.572458	6.489925E-8
0.000200	17.017520	6.534641E-8
0.000250	16.492349	5.930975E-8
0.000300	16.018207	6.199271E-8
0.000350	15.486658	5.886259E-8
0.000400	14.944477	5.707395E-8
0.000450	14.404423	5.394383E-8
0.000500	13.919649	5.282593E-8
0.000550	13.396605	5.260235E-8
0.000600	12.875686	4.991939E-8
0.000650	12.322874	4.678927E-8
0.000700	11.818965	4.455347E-8
0.000750	11.321435	4.544779E-8
0.000800	10.783506	4.187051E-8
0.000850	10.224316	4.187051E-8
0.000900	9.726785	3.717533E-8
0.000950	9.231381	3.918755E-8
0.001000	8.697705	3.538669E-8
0.001050	8.144893	3.493953E-8
0.001100	7.636731	2.867929E-8
0.001150	7.147706	3.180941E-8
0.001200	6.609777	2.890287E-8
0.001250	6.046334	2.890287E-8
0.001300	5.533920	2.264263E-8
0.001350	5.055525	2.532559E-8
0.001400	4.519722	2.241905E-8
0.001450	3.969036	2.152474E-8
0.001500	3.439613	1.638240E-8
0.001550	2.952713	1.861820E-8
0.001600	2.427541	1.526450E-8
0.001650	1.887486	1.325228E-8
0.001700	1.343179	1.056932E-8
0.001750	0.866909	1.258154E-8
0.001800	0.345990	8.333518E-9
0.001850	-0.162172	5.650559E-9
0.001900	-0.700101	1.402540E-9
0.001950	-1.184875	4.085499E-9
0.002000	-1.703668	1.178960E-9
0.002050	-2.252228	-3.860994E-10
0.002100	-2.785905	-4.634118E-9
0.002150	-3.260048	-2.621899E-9
0.002200	-3.797977	-5.975598E-9
0.002250	-4.342285	-7.987817E-9
0.002300	-4.882341	-1.111794E-8
0.002350	-5.364989	-9.552877E-9
0.002400	-5.883782	-1.290658E-8
0.002450	-6.428090	-1.514238E-8
0.002500	-6.980903	-1.782533E-8
0.002550	-7.472056	-2.073187E-8
0.002600	-7.982345	-1.961397E-8
0.002650	-8.516022	-2.341483E-8
0.002700	-9.068835	-2.475631E-8
0.002750	-9.562115	-2.989865E-8
0.002800	-10.076656	-2.766285E-8
0.002850	-10.608207	-3.079297E-8
0.002900	-11.158894	-3.079297E-8
0.002950	-11.664931	-3.705321E-8
0.003000	-12.156084	-3.459383E-8
0.003050	-12.687636	-3.727679E-8
0.003100	-13.242575	-3.839469E-8
0.003150	-13.765622	-4.443135E-8
0.003200	-14.248270	-4.174839E-8
0.003250	-14.777696	-4.443135E-8
0.003300	-15.326257	-4.577283E-8
0.003350	-15.855682	-5.069159E-8
0.003400	-16.331952	-4.867937E-8
0.003450	-16.863504	-5.225664E-8
0.003500	-17.405687	-5.471602E-8
0.003550	-17.943617	-5.806972E-8
0.003600	-18.430519	-5.874046E-8
0.003650	-18.949313	-6.008194E-8
0.003700	-19.487244	-6.298848E-8
0.003750	-20.046437	-6.500070E-8
0.003800	-20.533338	-6.813082E-8
0.003850	-21.035123	-6.790724E-8
0.003900	-21.570928	-7.193168E-8
0.003950	-22.130121	-7.237884E-8
0.004000	-22.625528	-7.930982E-8
0.004050	-23.140070	-7.595612E-8
0.004100	-23.673749	-7.863908E-8
0.004150	-24.220185	-8.020414E-8
0.004200	-24.728349	-8.668795E-8
0.004250	-25.215251	-8.333425E-8
0.004300	-25.753182	-8.713511E-8
0.004350	-26.061483	-8.691153E-8
0.004400	-25.506542	-8.534647E-8
0.004450	-25.030271	-8.467573E-8
0.004500	-24.532738	-8.467573E-8
0.004550	-23.994806	-8.065130E-8
0.004600	-23.433487	-7.908624E-8
0.004650	-22.929576	-7.752118E-8
0.004700	-22.423538	-7.908624E-8
0.004750	-21.896238	-7.416748E-8
0.004800	-21.337045	-7.304958E-8
0.004850	-20.835260	-7.059020E-8
0.004900	-20.344106	-7.036662E-8
0.004950	-19.808301	-6.701292E-8
0.005000	-19.251235	-6.656576E-8
0.005050	-18.732440	-6.432996E-8
0.005100	-18.243413	-6.410638E-8
0.005150	-17.716113	-6.075268E-8
0.005200	-17.182435	-6.075268E-8
0.005250	-16.650883	-5.739898E-8
0.005300	-16.157604	-5.628108E-8
0.005350	-15.636683	-5.382170E-8
0.005400	-15.088122	-5.292738E-8
0.005450	-14.537434	-5.002085E-8
0.005500	-14.056912	-4.979727E-8
0.005550	-13.553001	-5.024443E-8
0.005600	-13.012945	-4.599641E-8
0.005650	-12.455879	-4.353703E-8
0.005700	-11.968978	-4.174839E-8
0.005750	-11.462941	-4.308987E-8
0.005800	-10.929264	-3.839469E-8
0.005850	-10.370072	-3.660605E-8
0.005900	-9.874667	-3.459383E-8
0.005950	-9.368630	-3.571173E-8
0.006000	-8.847710	-3.124013E-8
0.006050	-8.286392	-2.989865E-8
0.006100	-7.776103	-2.654495E-8
0.006150	-7.287076	-2.699211E-8
0.006200	-6.749147	-2.296767E-8
0.006250	-6.183577	-2.229693E-8
0.006300	-5.664783	-2.073187E-8
0.006350	-5.184261	-2.006113E-8
0.006400	-4.648458	-1.670744E-8
0.006450	-4.112655	-1.648386E-8
0.006500	-3.581105	-1.268300E-8
0.006550	-3.089952	-1.223584E-8
0.006600	-2.562654	-1.044720E-8
0.006650	-2.026851	-9.105717E-9
0.006700	-1.482543	-5.752018E-9
0.006750	-0.999895	-4.186958E-9
0.006800	-0.483228	-3.292639E-9
0.006850	0.027060	-1.503999E-9
0.006900	0.558610	2.520440E-9
0.006950	1.049763	1.626120E-9
0.007000	1.574934	4.532659E-9
0.007050	2.117116	5.203399E-9
0.007100	2.650792	9.004258E-9
0.007150	3.135566	9.451418E-9
0.007200	3.664990	1.012216E-8
0.007250	4.196540	1.258154E-8
0.007300	4.738721	1.615882E-8
0.007350	5.225621	1.794746E-8
0.007400	5.746540	1.951252E-8
0.007450	6.282342	2.107758E-8
0.007500	6.837280	2.308979E-8
0.007550	7.319928	2.532559E-8
0.007600	7.798323	2.778497E-8
0.007650	8.397911	3.203299E-8
0.007700	8.982616	3.158583E-8
0.007750	9.441875	3.136225E-8
0.007800	9.922396	3.024435E-8
0.007850	10.449693	3.628101E-8
0.007900	11.008883	3.829323E-8
0.007950	11.527676	4.142335E-8
0.008000	12.010323	4.075261E-8
0.008050	12.546125	4.455347E-8
0.008100	13.090432	4.500063E-8
0.008150	13.617729	4.857791E-8
0.008200	14.106755	4.902507E-8
0.008250	14.634052	5.237877E-8
0.008300	15.171980	5.237877E-8
0.008350	15.705656	5.595605E-8
0.008400	16.188303	5.685037E-8
0.008450	16.704969	5.908617E-8
0.008500	17.238645	6.042765E-8
0.008550	17.789330	6.422851E-8
0.008600	18.276229	6.624073E-8
0.008650	18.792895	6.758221E-8
0.008700	19.330823	6.937085E-8
0.008750	19.870878	7.183023E-8
0.008800	20.357777	7.428960E-8
0.008850	20.865938	7.406602E-8
0.008900	21.405992	7.809046E-8
0.008950	21.956677	7.987910E-8
0.009000	22.452081	8.256206E-8
0.009050	22.951738	8.300922E-8
0.009100	23.491792	8.658650E-8
0.009150	24.038224	8.815156E-8
0.009200	24.550638	9.038736E-8
0.009250	25.035411	9.061094E-8
0.009300	25.566960	9.485896E-8
0.009350	25.892268	9.351748E-8
0.009400	25.339457	9.396464E-8
0.009450	24.861063	8.971662E-8
0.009500	24.344397	9.150526E-8
0.009550	23.817100	8.904588E-8
0.009600	23.270667	8.658650E-8
0.009650	22.756127	8.189132E-8
0.009700	22.258597	8.546860E-8
0.009750	21.735553	8.211490E-8
0.009800	21.184868	8.189132E-8
0.009850	20.668202	7.540750E-8
0.009900	20.174924	7.876120E-8
0.009950	19.705034	7.440139E-8

