LabVIEW Measurement	
Writer_Version	2
Reader_Version	2
Separator	Tab
Decimal_Separator	.
Multi_Headings	Yes
X_Columns	One
Time_Pref	Relative
Operator	e014
Description	Hysteresis Loop Data
Date	2015/09/03
Time	11:54:22.6221666336059570312
***End_of_Header***	
	
Channels	2		
Samples	200	200	
Date	2015/09/03	2015/09/03	
Time	11:54:22.6221666336059570312	11:54:22.6221666336059570312	
Y_Unit_Label	V	C	
X_Dimension	Time	Time	
X0	0.0000000000000000E+0	0.0000000000000000E+0	
Delta_X	5.000000E-5	5.000000E-5	
***End_of_Header***			
X_Value	Applied Voltage	Charge	Comment
0.000000	-23.860855	-7.784403E-6	Source: DAQ NI USB-6211 | Sample Length: 1.00E+3 ms | Sample Rate: 20.0 kHz | Sense Capacitance: 666 nF
5.000000E-5	-23.208109	-7.555573E-6
0.000100	-22.706324	-7.461632E-6
0.000150	-22.076966	-7.319516E-6
0.000200	-21.564549	-7.155721E-6
0.000250	-21.056386	-6.972657E-6
0.000300	-20.546096	-6.784775E-6
0.000350	-20.037932	-6.601710E-6
0.000400	-19.527642	-6.421054E-6
0.000450	-19.023731	-6.245216E-6
0.000500	-18.511315	-6.064560E-6
0.000550	-17.981889	-5.893540E-6
0.000600	-17.460968	-5.727336E-6
0.000650	-16.937921	-5.551498E-6
0.000700	-16.419127	-5.380477E-6
0.000750	-15.889702	-5.216683E-6
0.000800	-15.381538	-5.052888E-6
0.000850	-14.884006	-4.879458E-6
0.000900	-14.384348	-4.710846E-6
0.000950	-13.891068	-4.527782E-6
0.001000	-13.353138	-4.349535E-6
0.001050	-12.838596	-4.164062E-6
0.001100	-12.307045	-3.971362E-6
0.001150	-11.760610	-3.788297E-6
0.001200	-11.222680	-3.607642E-6
0.001250	-10.691129	-3.439030E-6
0.001300	-10.161704	-3.263191E-6
0.001350	-9.619522	-3.087353E-6
0.001400	-9.098602	-2.921150E-6
0.001450	-8.584061	-2.750129E-6
0.001500	-8.069519	-2.579108E-6
0.001550	-7.565609	-2.405678E-6
0.001600	-7.057446	-2.237066E-6
0.001650	-6.534400	-2.061228E-6
0.001700	-6.024112	-1.892616E-6
0.001750	-5.513823	-1.709551E-6
0.001800	-4.986525	-1.536121E-6
0.001850	-4.471984	-1.362692E-6
0.001900	-3.951064	-1.191671E-6
0.001950	-3.425892	-1.015833E-6
0.002000	-2.892215	-8.496291E-7
0.002050	-2.369169	-6.737908E-7
0.002100	-1.848250	-4.834999E-7
0.002150	-1.329457	-3.100703E-7
0.002200	-0.806411	-1.270057E-7
0.002250	-0.287618	4.883274E-8
0.002300	0.203535	2.222624E-7
0.002350	0.718075	3.932833E-7
0.002400	1.196471	5.522605E-7
0.002450	1.734399	6.943764E-7
0.002500	2.293590	8.894848E-7
0.002550	2.863412	1.072549E-6
0.002600	3.458748	1.267658E-6
0.002650	4.020065	1.479627E-6
0.002700	4.543111	1.681962E-6
0.002750	5.008748	1.862618E-6
0.002800	5.472260	2.031230E-6
0.002850	5.935772	2.170937E-6
0.002900	6.443933	2.320280E-6
0.002950	6.935086	2.464804E-6
0.003000	7.494276	2.640643E-6
0.003050	8.070476	2.811664E-6
0.003100	8.644550	2.992320E-6
0.003150	9.205867	3.197063E-6
0.003200	9.743795	3.396989E-6
0.003250	10.268966	3.582462E-6
0.003300	10.760118	3.760710E-6
0.003350	11.244892	3.931731E-6
0.003400	11.742422	4.100343E-6
0.003450	12.244205	4.261729E-6
0.003500	12.731105	4.408662E-6
0.003550	13.241392	4.567640E-6
0.003600	13.781447	4.738661E-6
0.003650	14.342763	4.907273E-6
0.003700	14.914710	5.087929E-6
0.003750	15.480279	5.290264E-6
0.003800	16.028838	5.499825E-6
0.003850	16.543378	5.682889E-6
0.003900	17.015394	5.851502E-6
0.003950	17.500167	6.024931E-6
0.004000	17.976435	6.191135E-6
0.004050	18.469713	6.342886E-6
0.004100	18.994884	6.499454E-6
0.004150	19.462648	6.658432E-6
0.004200	19.977187	6.822227E-6
0.004250	20.506611	6.990839E-6
0.004300	21.031781	7.154634E-6
0.004350	21.559078	7.335290E-6
0.004400	22.084249	7.520763E-6
0.004450	22.620051	7.711054E-6
0.004500	23.191998	7.906163E-6
0.004550	23.751188	8.091636E-6
0.004600	24.352901	8.284336E-6
0.004650	24.850432	8.366234E-6
0.004700	25.318195	8.546890E-6
0.004750	25.930540	8.708276E-6
0.004800	25.596727	8.604700E-6
0.004850	25.135342	8.409591E-6
0.004900	24.605919	8.204847E-6
0.004950	24.040351	8.016965E-6
0.005000	23.468404	7.821857E-6
0.005050	22.934728	7.672514E-6
0.005100	22.443576	7.513537E-6
0.005150	21.935415	7.337698E-6
0.005200	21.433633	7.159451E-6
0.005250	20.919093	6.973978E-6
0.005300	20.389670	6.788504E-6
0.005350	19.847489	6.607848E-6
0.005400	19.315940	6.439236E-6
0.005450	18.795022	6.268215E-6
0.005500	18.282608	6.097194E-6
0.005550	17.768068	5.923764E-6
0.005600	17.247150	5.750334E-6
0.005650	16.732610	5.569678E-6
0.005700	16.213817	5.391431E-6
0.005750	15.682268	5.215592E-6
0.005800	15.152845	5.042163E-6
0.005850	14.634052	4.866324E-6
0.005900	14.115260	4.692895E-6
0.005950	13.585836	4.517056E-6
0.006000	13.064918	4.341218E-6
0.006050	12.537620	4.162970E-6
0.006100	12.014576	3.984723E-6
0.006150	11.497909	3.816111E-6
0.006200	10.981243	3.635455E-6
0.006250	10.451819	3.462025E-6
0.006300	9.939405	3.288595E-6
0.006350	9.399351	3.103122E-6
0.006400	8.880558	2.944145E-6
0.006450	8.359639	2.763489E-6
0.006500	7.836594	2.587650E-6
0.006550	7.315675	2.411812E-6
0.006600	6.786252	2.243200E-6
0.006650	6.267459	2.062544E-6
0.006700	5.738035	1.886705E-6
0.006750	5.217116	1.713276E-6
0.006800	4.694071	1.535029E-6
0.006850	4.164647	1.366416E-6
0.006900	3.650106	1.183352E-6
0.006950	3.120682	1.014740E-6
0.007000	2.601889	8.340837E-7
0.007050	2.078844	6.606540E-7
0.007100	1.557925	4.872244E-7
0.007150	1.037006	3.113860E-7
0.007200	0.513960	1.403651E-7
0.007250	-0.013338	-4.269957E-8
0.007300	-0.523626	-1.992680E-7
0.007350	-1.023284	-3.582452E-7
0.007400	-1.533572	-5.389010E-7
0.007450	-2.069375	-7.243744E-7
0.007500	-2.596673	-8.953953E-7
0.007550	-3.109088	-1.068825E-6
0.007600	-3.642765	-1.239846E-6
0.007650	-4.163684	-1.413275E-6
0.007700	-4.684604	-1.591523E-6
0.007750	-5.205523	-1.769770E-6
0.007800	-5.728569	-1.943199E-6
0.007850	-6.253742	-2.111811E-6
0.007900	-6.783166	-2.294876E-6
0.007950	-7.306212	-2.468306E-6
0.008000	-7.825006	-2.636918E-6
0.008050	-8.348052	-2.815165E-6
0.008100	-8.871098	-2.986186E-6
0.008150	-9.394144	-3.159615E-6
0.008200	-9.921443	-3.333045E-6
0.008250	-10.450868	-3.506474E-6
0.008300	-10.978167	-3.682313E-6
0.008350	-11.492708	-3.855742E-6
0.008400	-12.015755	-4.031581E-6
0.008450	-12.534549	-4.202601E-6
0.008500	-13.059721	-4.376031E-6
0.008550	-13.589147	-4.551869E-6
0.008600	-14.107941	-4.727708E-6
0.008650	-14.633114	-4.893911E-6
0.008700	-15.154034	-5.069749E-6
0.008750	-15.679207	-5.240770E-6
0.008800	-16.191623	-5.419017E-6
0.008850	-16.729553	-5.590038E-6
0.008900	-17.250474	-5.761059E-6
0.008950	-17.769268	-5.936897E-6
0.009000	-18.288063	-6.112735E-6
0.009050	-18.815362	-6.286165E-6
0.009100	-19.336283	-6.449959E-6
0.009150	-19.867835	-6.633024E-6
0.009200	-20.390882	-6.804045E-6
0.009250	-20.907551	-6.975065E-6
0.009300	-21.428472	-7.146086E-6
0.009350	-21.951519	-7.319516E-6
0.009400	-22.474567	-7.495354E-6
0.009450	-22.999740	-7.666375E-6
0.009500	-23.533419	-7.844622E-6
0.009550	-24.054340	-8.006008E-6
0.009600	-24.564631	-8.191481E-6
0.009650	-25.096183	-8.360093E-6
0.009700	-25.619231	-8.531114E-6
0.009750	-26.142279	-8.750309E-6
0.009800	-25.867998	-8.634690E-6
0.009850	-25.210999	-8.545566E-6
0.009900	-24.626291	-8.401041E-6
0.009950	-24.309485	-8.030095E-6

