LabVIEW Measurement	
Writer_Version	2
Reader_Version	2
Separator	Tab
Decimal_Separator	.
Multi_Headings	Yes
X_Columns	One
Time_Pref	Relative
Operator	e014
Description	Hysteresis Loop Data
Date	2015/09/03
Time	11:18:01.8344326019287109375
***End_of_Header***	
	
Channels	2		
Samples	200	200	
Date	2015/09/03	2015/09/03	
Time	11:18:01.8344326019287109375	11:18:01.8344326019287109375	
Y_Unit_Label	V	C	
X_Dimension	Time	Time	
X0	0.0000000000000000E+0	0.0000000000000000E+0	
Delta_X	5.000000E-5	5.000000E-5	
***End_of_Header***			
X_Value	Applied Voltage	Charge	Comment
0.000000	13.277538	1.263119E-6	Source: DAQ NI USB-6211 | Sample Length: 1.00E+3 ms | Sample Rate: 20.0 kHz | Sense Capacitance: 666 nF
5.000000E-5	13.454012	1.370418E-6
0.000100	13.864368	1.450345E-6
0.000150	14.804148	1.408520E-6
0.000200	15.276164	1.468958E-6
0.000250	15.459017	1.600344E-6
0.000300	16.060731	1.631658E-6
0.000350	16.943103	1.592680E-6
0.000400	17.247150	1.686183E-6
0.000450	17.525682	1.804431E-6
0.000500	18.257094	1.810125E-6
0.000550	19.028903	1.756475E-6
0.000600	19.239397	1.911511E-6
0.000650	19.558327	2.010489E-6
0.000700	20.419437	1.992971E-6
0.000750	21.084936	2.015963E-6
0.000800	21.261411	2.130708E-6
0.000850	21.676019	2.209977E-6
0.000900	22.571148	2.178007E-6
0.000950	23.130338	2.217423E-6
0.001000	23.304686	2.345525E-6
0.001050	23.797964	2.406400E-6
0.001100	24.703724	2.366984E-6
0.001150	25.188497	2.420196E-6
0.001200	25.411748	2.528371E-6
0.001250	25.834861	2.566911E-6
0.001300	25.411748	2.501218E-6
0.001350	25.137468	2.388006E-6
0.001400	24.654821	2.314211E-6
0.001450	23.974438	2.290123E-6
0.001500	23.285551	2.274576E-6
0.001550	22.688089	2.254430E-6
0.001600	22.177802	2.210634E-6
0.001650	21.826979	2.134430E-6
0.001700	21.474030	2.029978E-6
0.001750	21.004141	1.956839E-6
0.001800	20.374786	1.930562E-6
0.001850	19.683772	1.900124E-6
0.001900	19.060796	1.887861E-6
0.001950	18.499480	1.847789E-6
0.002000	18.112512	1.791073E-6
0.002050	17.780825	1.689468E-6
0.002100	17.353460	1.599687E-6
0.002150	16.724105	1.570125E-6
0.002200	15.996945	1.562680E-6
0.002250	15.384600	1.541877E-6
0.002300	14.952982	1.486476E-6
0.002350	14.661693	1.376549E-6
0.002400	14.234327	1.295528E-6
0.002450	13.607098	1.266404E-6
0.002500	12.911831	1.234433E-6
0.002550	12.278224	1.223265E-6
0.002600	11.716908	1.184725E-6
0.002650	11.317182	1.128886E-6
0.002700	10.985495	1.029471E-6
0.002750	10.566634	9.375002E-7
0.002800	9.981929	9.088142E-7
0.002850	9.280284	8.748727E-7
0.002900	8.616909	8.669895E-7
0.002950	8.057719	8.293255E-7
0.003000	7.730284	7.526835E-7
0.003050	7.430490	6.390344E-7
0.003100	6.858542	5.915164E-7
0.003150	6.129256	5.667720E-7
0.003200	5.476512	5.619545E-7
0.003250	4.917322	5.242905E-7
0.003300	4.534606	4.618821E-7
0.003350	4.202918	3.572111E-7
0.003400	3.767047	2.731240E-7
0.003450	3.156828	2.459708E-7
0.003500	2.457308	2.146571E-7
0.003550	1.815195	2.034893E-7
0.003600	1.256004	1.638545E-7
0.003650	0.900929	9.881836E-8
0.003700	0.594756	-1.373574E-8
0.003750	0.154632	-9.410023E-8
0.003800	-0.574655	-9.869874E-8
0.003850	-1.286933	-9.103455E-8
0.003900	-1.839745	-1.306694E-7
0.003950	-2.150171	-2.151944E-7
0.004000	-2.486111	-3.213981E-7
0.004050	-3.002778	-4.008867E-7
0.004100	-3.689541	-4.067990E-7
0.004150	-4.367800	-4.214705E-7
0.004200	-4.948253	-4.494995E-7
0.004250	-5.450037	-4.911051E-7
0.004300	-5.777472	-5.749732E-7
0.004350	-6.143179	-6.798630E-7
0.004400	-6.708749	-7.381108E-7
0.004450	-7.433784	-7.473078E-7
0.004500	-8.109917	-7.481837E-7
0.004550	-8.605323	-7.952637E-7
0.004600	-8.883855	-8.970878E-7
0.004650	-9.260194	-9.908098E-7
0.004700	-9.868288	-1.019496E-6
0.004750	-10.572062	-1.055408E-6
0.004800	-11.218428	-1.064605E-6
0.004850	-11.783998	-1.102269E-6
0.004900	-12.166715	-1.160517E-6
0.004950	-12.487772	-1.265844E-6
0.005000	-12.953411	-1.351026E-6
0.005050	-13.614661	-1.373362E-6
0.005100	-14.337571	-1.369201E-6
0.005150	-14.918025	-1.399858E-6
0.005200	-15.264597	-1.476062E-6
0.005250	-15.583528	-1.585769E-6
0.005300	-16.083186	-1.661316E-6
0.005350	-16.761446	-1.674892E-6
0.005400	-17.446085	-1.691097E-6
0.005450	-18.030792	-1.715841E-6
0.005500	-18.532577	-1.757228E-6
0.005550	-18.862139	-1.838030E-6
0.005600	-19.225720	-1.943577E-6
0.005650	-19.776408	-2.024817E-6
0.005700	-20.484436	-2.016934E-6
0.005750	-21.171201	-2.015401E-6
0.005800	-21.698501	-2.058539E-6
0.005850	-21.983413	-2.153356E-6
0.005900	-22.340616	-2.252114E-6
0.005950	-22.921071	-2.321530E-6
0.006000	-23.614215	-2.327223E-6
0.006050	-24.273340	-2.337077E-6
0.006100	-24.802766	-2.370800E-6
0.006150	-25.304552	-2.414814E-6
0.006200	-25.636241	-2.502623E-6
0.006250	-25.914774	-2.579484E-6
0.006300	-25.585212	-2.487295E-6
0.006350	-25.285416	-2.370800E-6
0.006400	-24.530611	-2.373865E-6
0.006450	-23.816205	-2.360727E-6
0.006500	-23.643982	-2.242041E-6
0.006550	-23.227245	-2.157736E-6
0.006600	-22.289587	-2.205253E-6
0.006650	-21.836704	-2.139998E-6
0.006700	-21.645345	-2.007956E-6
0.006750	-20.962832	-1.985182E-6
0.006800	-20.139990	-2.043430E-6
0.006850	-19.944379	-1.895183E-6
0.006900	-19.580797	-1.799928E-6
0.006950	-18.668654	-1.832556E-6
0.007000	-18.154112	-1.785695E-6
0.007050	-17.960627	-1.653871E-6
0.007100	-17.346153	-1.618397E-6
0.007150	-16.463777	-1.663287E-6
0.007200	-16.240526	-1.547667E-6
0.007250	-15.923721	-1.444529E-6
0.007300	-15.003074	-1.476500E-6
0.007350	-14.475774	-1.424383E-6
0.007400	-14.295047	-1.297815E-6
0.007450	-13.674195	-1.265844E-6
0.007500	-12.791820	-1.306136E-6
0.007550	-12.579199	-1.186575E-6
0.007600	-12.275152	-1.082561E-6
0.007650	-11.350253	-1.118473E-6
0.007700	-10.812323	-1.068328E-6
0.007750	-10.657110	-9.338759E-7
0.007800	-10.027753	-9.003725E-7
0.007850	-9.156010	-9.459196E-7
0.007900	-8.926379	-8.278912E-7
0.007950	-8.611701	-7.243152E-7
0.008000	-7.716570	-7.512494E-7
0.008050	-7.157378	-7.138044E-7
0.008100	-6.987282	-5.797906E-7
0.008150	-6.377061	-5.397179E-7
0.008200	-5.477677	-5.852651E-7
0.008250	-5.252300	-4.762147E-7
0.008300	-4.935496	-3.713248E-7
0.008350	-4.044617	-3.956312E-7
0.008400	-3.476921	-3.535877E-7
0.008450	-3.289815	-2.292089E-7
0.008500	-2.737002	-1.830048E-7
0.008550	-1.814231	-2.257053E-7
0.008600	-1.550582	-1.251949E-7
0.008650	-1.240156	-1.264085E-8
0.008700	-0.421569	-3.322467E-8
0.008750	0.133370	5.980332E-11
0.008800	0.311971	1.290372E-7
0.008850	0.892424	1.686720E-7
0.008900	1.791807	1.261905E-7
0.008950	2.068213	2.271388E-7
0.009000	2.365881	3.427586E-7
0.009050	3.178090	3.245835E-7
0.009100	3.837212	3.506418E-7
0.009150	3.994551	4.780864E-7
0.009200	4.492082	5.391809E-7
0.009250	5.406348	4.903491E-7
0.009300	5.780559	5.678669E-7
0.009350	6.029324	6.926838E-7
0.009400	6.747980	7.095450E-7
0.009450	7.536800	6.596183E-7
0.009500	7.721779	8.080847E-7
0.009550	8.102369	8.974274E-7
0.009600	9.018761	8.630480E-7
0.009650	9.531175	9.127558E-7
0.009700	9.731038	1.040200E-6
0.009750	10.294481	1.086186E-6
0.009800	11.215125	1.042171E-6
0.009850	11.504288	1.133266E-6
0.009900	11.821091	1.247572E-6
0.009950	12.377092	1.267280E-6

